Sensor: bmi160 Gyroscope Non-wakeup
Vendor: BOSCH
TimestampGyro [ns]; GyroX [rad/s]; GyroY [rad/s]; GyroZ [rad/s]
578854583861929;0.0035;0.0033;-0.0245;
578854593948491;-0.0008;0.0012;-0.0298;
578854604047241;0.0024;0.0033;-0.0245;
578854614164741;0.0035;0.0033;-0.0256;
578854624252346;0.0045;0.0033;-0.0245;
578854634362241;0.0045;0.0023;-0.0234;
578854644453075;0.0035;0.0033;-0.0202;
578854654577554;0.0013;0.0033;-0.0149;
578854664665054;0.0013;0.0033;-0.0085;
578854674758700;-0.0008;0.0033;-0.0032;
578854684865054;-0.0029;0.0012;0.0032;
578854694972241;-0.0029;0.0001;0.0107;
578854705072762;-0.0051;-0.0019;0.0181;
578854715168231;-0.0061;-0.0029;0.0256;
578854725279741;-0.0083;-0.0040;0.0320;
578854735374898;-0.0093;-0.0029;0.0362;
578854745485262;-0.0083;-0.0029;0.0405;
578854755588179;-0.0115;-0.0029;0.0447;
578854765677554;-0.0115;-0.0029;0.0469;
578854775781408;-0.0136;-0.0040;0.0479;
578854785886929;-0.0146;-0.0040;0.0522;
578854796020679;-0.0125;-0.0051;0.0522;
578854806081148;-0.0125;-0.0061;0.0543;
578854816189481;-0.0125;-0.0072;0.0533;
578854826295314;-0.0115;-0.0072;0.0533;
578854836413804;-0.0104;-0.0083;0.0522;
578854846498491;-0.0083;-0.0072;0.0511;
578854856601408;-0.0072;-0.0061;0.0490;
578854866715366;-0.0061;-0.0051;0.0469;
578854876820991;-0.0093;-0.0051;0.0447;
578854886885314;-0.0061;-0.0029;0.0405;
578854897030471;-0.0051;-0.0029;0.0373;
578854907108283;-0.0051;-0.0029;0.0320;
578854917280575;-0.0061;-0.0008;0.0277;
578854927314637;-0.0093;-0.0019;0.0256;
578854937419325;-0.0093;0.0001;0.0234;
578854947522450;-0.0093;0.0001;0.0224;
578854957630575;-0.0072;-0.0008;0.0224;
578854967747866;-0.0083;-0.0019;0.0224;
578854977826304;-0.0072;-0.0008;0.0224;
578854987931408;-0.0083;-0.0019;0.0234;
578854998028596;-0.0072;-0.0008;0.0245;
578855008143387;-0.0104;-0.0008;0.0277;
578855018228908;-0.0115;0.0001;0.0298;
578855028338804;-0.0115;-0.0008;0.0341;
578855038508075;-0.0115;-0.0019;0.0383;
578855048549741;-0.0115;-0.0029;0.0405;
578855058676200;-0.0136;-0.0051;0.0458;
578855068756929;-0.0115;-0.0072;0.0490;
578855078848387;-0.0104;-0.0072;0.0511;
578855088978648;-0.0104;-0.0083;0.0543;
578855099077137;-0.0115;-0.0072;0.0554;
578855109164898;-0.0125;-0.0040;0.0554;
578855119264741;-0.0136;-0.0040;0.0543;
578855129363179;-0.0136;-0.0040;0.0554;
578855139476616;-0.0125;-0.0040;0.0543;
578855149578075;-0.0125;-0.0083;0.0543;
578855159692398;-0.0115;-0.0104;0.0575;
578855169783075;-0.0125;-0.0125;0.0586;
578855179876408;-0.0072;-0.0146;0.0607;
578855189978491;-0.0083;-0.0157;0.0618;
578855200090314;-0.0061;-0.0136;0.0618;
578855210192241;0.0067;-0.0104;0.0628;
578855220290991;0.0258;-0.0083;0.0671;
578855230409637;0.0439;-0.0083;0.0703;
578855240499637;0.0642;-0.0136;0.0756;
578855250596512;0.0876;-0.0200;0.0788;
578855260697971;0.1089;-0.0221;0.0842;
578855270803075;0.1270;-0.0221;0.0884;
578855280910471;0.1377;-0.0168;0.0937;
578855291018179;0.1270;-0.0146;0.0948;
578855301112450;0.1004;-0.0115;0.0927;
578855311215887;0.0610;-0.0115;0.0905;
578855321334221;0.0173;-0.0115;0.0863;
578855331412398;-0.0232;-0.0115;0.0831;
578855341519012;-0.0317;-0.0083;0.0820;
578855351618596;-0.0232;-0.0040;0.0810;
578855361730991;-0.0242;-0.0040;0.0799;
578855371838596;-0.0221;-0.0061;0.0810;
578855381919898;-0.0221;-0.0125;0.0778;
578855392056616;-0.0221;-0.0178;0.0778;
578855402143908;-0.0210;-0.0178;0.0767;
578855412233075;-0.0136;-0.0157;0.0756;
578855422347971;0.0067;-0.0115;0.0756;
578855432443491;0.0290;-0.0083;0.0756;
578855442562241;0.0493;-0.0072;0.0767;
578855452651825;0.0695;-0.0104;0.0778;
578855462753596;0.0940;-0.0146;0.0767;
578855472852450;0.1228;-0.0178;0.0778;
578855482951512;0.1590;-0.0178;0.0820;
578855493055991;0.2016;-0.0168;0.0884;
578855503154064;0.2495;-0.0157;0.0937;
578855513270887;0.3017;-0.0168;0.0991;
578855523371616;0.3475;-0.0221;0.1085;
578855533454846;0.3784;-0.0253;0.1160;
578855543564221;0.4072;-0.0285;0.1224;
578855553667346;0.4498;-0.0306;0.1320;
578855563770575;0.5168;-0.0317;0.1447;
578855573876981;0.5871;-0.0328;0.1618;
578855583969221;0.6627;-0.0360;0.1788;
578855594083596;0.7586;-0.0423;0.2001;
578855604186721;0.8651;-0.0498;0.2225;
578855614277033;0.8960;-0.0786;0.2513;
578855624396148;0.6510;-0.1446;0.2577;
578855634500991;0.1632;-0.1808;0.2353;
578855644592241;0.0173;-0.1009;0.1959;
578855654679637;-0.0008;-0.0338;0.2001;
578855664766981;-0.0487;0.0044;0.2076;
578855674903387;-0.0658;0.0683;0.1873;
578855684990783;-0.0818;0.0885;0.1682;
578855695078127;-0.0807;0.0566;0.1628;
578855705212346;-0.0764;0.0364;0.1650;
578855715299741;-0.0871;0.0417;0.1682;
578855725387085;-0.1328;0.0289;0.1671;
578855735509325;-0.1583;-0.0168;0.1660;
578855745596721;-0.0711;-0.0338;0.1724;
578855755684064;-0.0232;-0.0093;0.1746;
578855765818075;-0.0178;-0.0008;0.1597;
578855775905471;0.0482;-0.0136;0.1426;
578855785992814;0.0887;-0.0264;0.1362;
578855796127398;0.0642;-0.0200;0.1256;
578855806214794;-0.0040;-0.0019;0.1023;
578855816302137;-0.0626;-0.0008;0.0714;
578855826425731;-0.0519;-0.0040;0.0458;
578855836513075;-0.0487;0.0055;0.0341;
578855846600471;-0.0434;0.0140;0.0256;
578855856729585;-0.0413;0.0278;0.0021;
578855866816929;-0.0210;0.0406;-0.0213;
578855876904325;-0.0008;0.0310;-0.0320;
578855887065835;0.0141;0.0023;-0.0352;
578855897153179;0.0844;-0.0125;-0.0447;
578855907240523;0.2027;-0.0115;-0.0490;
578855917327866;0.2879;-0.0040;-0.0426;
578855927439846;0.3411;0.0076;-0.0309;
578855937527189;0.3731;0.0001;-0.0224;
578855947614533;0.4583;-0.0125;-0.0202;
578855957761981;0.5594;-0.0029;-0.0085;
578855967849377;0.6297;0.0289;0.0224;
578855977936773;0.6851;0.0332;0.0543;
578855988077814;0.7522;-0.0008;0.0767;
578855998165210;0.8385;-0.0029;0.0937;
578856008252554;0.9056;-0.0253;0.1138;
578856018395523;0.9120;-0.0647;0.1288;
578856028482919;0.8992;-0.0317;0.1458;
578856038570262;0.8619;-0.0008;0.1501;
578856048677606;0.7969;-0.0285;0.1543;
578856058764950;0.7682;-0.0391;0.1543;
578856068852294;0.7511;-0.0317;0.1522;
578856078993491;0.7085;-0.0274;0.1469;
578856089080887;0.6776;0.0055;0.1362;
578856099168231;0.6425;0.0289;0.1383;
578856109299273;0.6158;0.0044;0.1298;
578856119386616;0.5722;-0.0242;0.1277;
578856129474012;0.5104;-0.0317;0.1373;
578856139628283;0.4487;-0.0051;0.1256;
578856149715679;0.3806;0.0108;0.1055;
578856159803023;0.3241;-0.0210;0.0863;
578856169915783;0.2325;-0.0285;0.0586;
578856180003127;0.1089;0.0023;0.0405;
578856190090523;0.0855;-0.0136;0.0362;
578856200225106;0.0812;-0.0423;0.0362;
578856210312502;0.0610;-0.0413;0.0202;
578856220399846;0.0109;-0.0477;0.0011;
578856230538596;-0.0573;-0.0402;-0.0096;
578856240625991;-0.0999;-0.0274;-0.0170;
578856250713335;-0.1562;0.0310;-0.0170;
578856260837554;-0.2212;0.1184;-0.0032;
578856270924950;-0.1871;0.0917;0.0075;
578856281054116;0.0056;-0.0125;-0.0032;
578856291141460;0.1398;-0.0349;-0.0053;
578856301228804;0.1153;0.0236;0.0085;
578856311349637;0.1185;0.0225;0.0362;
578856321437033;0.0951;-0.0019;0.0522;
578856331524377;0.0386;0.0758;0.0373;
578856341649533;0.0461;0.0310;0.0266;
578856351736929;0.0929;-0.1489;0.0522;
578856361824273;0.0546;-0.1904;0.0852;
578856371966512;-0.0509;-0.0967;0.0724;
578856382053856;-0.1338;-0.0466;0.0405;
578856392141252;-0.1530;-0.0306;0.0075;
578856402277971;-0.1668;0.0523;-0.0032;
578856412365366;-0.1690;0.0481;0.0341;
578856422452710;-0.1232;-0.0413;0.0511;
578856432580575;-0.0700;-0.0328;0.0053;
578856442667971;-0.1073;0.0161;-0.0511;
578856452755314;-0.2009;0.0065;-0.0575;
578856462880783;-0.3288;0.0481;-0.0458;
578856472968179;-0.4257;0.1013;-0.0682;
578856483055523;-0.3245;-0.0178;-0.0682;
578856493180939;-0.1317;-0.0562;-0.0916;
578856503268283;-0.0434;-0.0296;-0.1257;
578856513355627;-0.1212;-0.0658;-0.1672;
578856523495106;-0.2563;-0.0264;-0.2088;
578856533582450;-0.3980;0.0502;-0.2450;
578856543669794;-0.4427;0.0268;-0.2770;
578856553802866;-0.4012;-0.0338;-0.3057;
578856563890262;-0.3362;0.0129;-0.3366;
578856573977658;-0.2020;0.0395;-0.3537;
578856584121200;0.0013;0.0076;-0.3355;
578856594208596;0.1632;0.0577;-0.2951;
578856604295939;0.2229;0.1184;-0.3068;
578856614413439;0.4210;0.0747;-0.3079;
578856624500783;0.7181;0.0278;-0.2375;
578856634588179;0.9791;0.0033;-0.1598;
578856644719637;1.1643;-0.0306;-0.1332;
578856654807033;1.3166;-0.0349;-0.1438;
578856664894377;1.3262;-0.0072;-0.1630;
578856675030679;1.2485;-0.0061;-0.1513;
578856685118023;1.1590;-0.0551;-0.1406;
578856695205419;1.0983;-0.0668;-0.1609;
578856705345783;0.9556;-0.0349;-0.1822;
578856715433179;0.7969;-0.0551;-0.1300;
578856725520523;0.7192;-0.0977;-0.0831;
578856735654221;0.6521;-0.0956;-0.0820;
578856745741616;0.5455;-0.0434;-0.0980;
578856755828960;0.3795;-0.0285;-0.0597;
578856765958804;0.2730;-0.0541;-0.0032;
578856776046200;0.2186;-0.0306;0.0117;
578856786133544;0.1728;0.0225;0.0138;
578856796279325;0.1366;-0.0019;0.0746;
578856806366669;0.1494;-0.0594;0.1660;
578856816454064;0.1686;-0.0487;0.2012;
578856826564481;0.1558;-0.0594;0.1991;
578856836651825;0.1387;-0.0636;0.2087;
578856846739221;0.1238;-0.0136;0.2374;
578856856879429;0.1249;0.0289;0.2651;
578856866966825;0.1185;0.0300;0.2608;
578856877054169;0.1036;-0.0168;0.2608;
578856887311564;0.0983;0.0150;0.2683;
578856897398908;0.0557;0.0438;0.2438;
578856907486304;-0.0168;-0.0157;0.2257;
578856917464741;-0.1041;-0.0605;0.1959;
578856927552085;-0.2180;-0.0434;0.1873;
578856937639429;-0.3607;-0.0253;0.1607;
578856947812189;-0.4822;-0.0072;0.1245;
578856957899585;-0.6068;-0.0381;0.1012;
578856967986981;-0.7101;-0.0402;0.0916;
578856978095731;-0.7931;0.0257;0.0533;
578856988183127;-0.9166;0.0044;0.0160;
578856998270471;-0.9987;-0.0466;-0.0021;
578857008401669;-1.0157;-0.0242;-0.0021;
578857018489012;-1.0274;-0.0061;-0.0085;
578857028576408;-0.9901;0.0108;-0.0085;
578857038715939;-0.9379;0.0044;-0.0224;
578857048803283;-0.8730;-0.0061;-0.0298;
578857058890679;-0.7739;0.0332;-0.0224;
578857069023439;-0.7016;0.0140;-0.0352;
578857079110783;-0.6174;-0.0072;-0.0277;
578857089198127;-0.4949;0.0119;-0.0117;
578857099329481;-0.4001;-0.0115;-0.0011;
578857109416825;-0.3192;-0.0221;-0.0128;
578857119504221;-0.2659;-0.0317;-0.0117;
578857129630523;-0.2286;0.0108;-0.0075;
578857139717866;-0.2478;0.0225;-0.0138;
578857149805210;-0.3245;-0.0562;-0.0320;
578857159953023;-0.3160;-0.0391;-0.0618;
578857170040419;-0.3149;0.0182;-0.0703;
578857180127762;-0.4598;-0.0157;-0.1076;
578857190262033;-0.5397;-0.0626;-0.1438;
578857200349429;-0.5280;-0.0157;-0.1747;
578857210436773;-0.5333;0.0321;-0.1875;
578857220560731;-0.6217;0.0065;-0.1896;
578857230648075;-0.6728;-0.0360;-0.2205;
578857240735419;-0.5940;0.0119;-0.2546;
578857250866252;-0.5770;0.0150;-0.2674;
578857260953596;-0.5748;-0.0360;-0.2482;
578857271040991;-0.4353;0.0161;-0.2652;
578857281187971;-0.3778;0.0406;-0.2865;
578857291287294;-0.4395;0.0278;-0.2557;
578857301386669;-0.4321;0.0214;-0.2429;
578857311483908;-0.3916;0.0225;-0.2344;
578857321583231;-0.3969;0.0321;-0.2216;
578857331682606;-0.3820;0.0672;-0.2120;
578857341785210;-0.4385;0.0864;-0.2162;
578857351884585;-0.5280;0.0321;-0.2397;
578857361983960;-0.4332;-0.0061;-0.2226;
578857372114169;-0.3362;0.0182;-0.1534;
578857382213491;-0.3106;0.0033;-0.1076;
578857392312919;-0.2169;-0.0317;-0.0554;
578857402420679;-0.1807;0.0150;-0.0064;
578857412520002;-0.1743;0.0662;0.0597;
578857422619377;-0.1850;-0.0125;0.1437;
578857432719221;-0.0913;0.0129;0.1703;
578857442818544;-0.0658;0.0811;0.2087;
578857452917919;-0.1466;0.0225;0.2875;
578857463022137;-0.1434;-0.0115;0.3194;
578857473121460;-0.1519;0.0427;0.3269;
578857483220835;-0.2403;0.0353;0.3535;
578857493341512;-0.3096;-0.0615;0.3748;
578857503440835;-0.2904;-0.0967;0.3844;
578857513540210;-0.2989;-0.0583;0.4132;
578857523654116;-0.3426;-0.0594;0.4185;
578857533753439;-0.3543;-0.0029;0.4153;
578857543852814;-0.4332;0.0534;0.4025;
578857553939689;-0.5599;0.0513;0.3759;
578857564039064;-0.6505;0.0630;0.2811;
578857574138439;-0.6973;0.0374;0.2023;
578857584260262;-0.7345;0.0119;0.1639;
578857594359585;-0.7080;0.0278;0.1309;
578857604458960;-0.6451;0.0523;0.0873;
578857614558648;-0.6121;0.0289;0.0298;
578857624657971;-0.5908;0.0353;-0.0256;
578857634757346;-0.5855;0.0651;-0.0756;
578857644886929;-0.5343;0.0214;-0.0884;
578857654986252;-0.4033;0.0310;-0.1044;
578857665085627;-0.2712;0.0885;-0.1300;
578857675171252;-0.1850;0.0459;-0.1640;
578857685270627;-0.1360;0.0204;-0.1864;
578857695370002;-0.0487;0.0800;-0.1907;
578857705480783;-0.0658;0.0800;-0.1790;
578857715580106;-0.0818;-0.0221;-0.1747;
578857725679481;0.0280;-0.0285;-0.1672;
578857735789221;0.0940;0.0704;-0.1726;
578857745888544;0.0908;0.0523;-0.1832;
578857755987919;0.1217;-0.0391;-0.1651;
578857766092137;0.2229;0.0193;-0.1076;
578857776191460;0.2346;0.1173;-0.0916;
578857786290835;0.1963;0.0715;-0.1076;
578857796415679;0.2282;0.0300;-0.1129;
578857806515054;0.2250;0.0513;-0.0788;
578857816614429;0.1973;0.0694;-0.0447;
578857826699273;0.1675;-0.0253;-0.0426;
578857836798700;0.1579;-0.0711;-0.0469;
578857846898023;0.1185;0.0513;-0.0277;
578857857014585;-0.0935;0.0321;-0.0234;
578857867113960;-0.2180;-0.0594;-0.0671;
578857877213335;-0.1999;0.0779;-0.0969;
578857887284794;-0.3032;0.1397;-0.0863;
578857897384064;-0.4001;0.0577;-0.0948;
578857907483439;-0.4268;0.0406;-0.1268;
578857917582866;-0.5024;0.0683;-0.1545;
578857927786669;-0.5397;0.1077;-0.1896;
578857937886044;-0.5780;0.0811;-0.2162;
578857947985419;-0.5919;0.1056;-0.2184;
578857958034325;-0.5802;0.1514;-0.2067;
578857968133700;-0.5993;0.1237;-0.2024;
578857978233075;-0.6164;0.0854;-0.2003;
578857988363023;-0.5993;0.0854;-0.1822;
578857998462398;-0.6611;0.0087;-0.1896;
578858008561721;-0.6281;0.0374;-0.2003;
578858018650627;-0.6558;0.1162;-0.1854;
578858028750002;-0.7984;0.0438;-0.1854;
578858038849377;-0.8474;0.0395;-0.2035;
578858048988491;-0.8719;0.1802;-0.2045;
578858059087866;-0.9997;0.1738;-0.2120;
578858069187241;-1.0178;0.1035;-0.2216;
578858079277346;-0.9465;0.1642;-0.2194;
578858089376721;-0.9102;0.1791;-0.2067;
578858099476044;-0.8453;0.1109;-0.2013;
578858109602398;-0.7218;0.0864;-0.1854;
578858119701773;-0.5482;0.1258;-0.1587;
578858129801148;-0.4289;0.0960;-0.1374;
578858139862189;-0.3330;0.0353;-0.1065;
578858149961616;-0.2883;0.0800;-0.0597;
578858160060991;-0.3117;0.1141;-0.0352;
578858170186096;-0.3288;0.0395;-0.0362;
578858180285471;-0.3202;0.0395;-0.0266;
578858190384846;-0.3288;0.1322;0.0085;
578858200509012;-0.3277;0.0896;0.0032;
578858210608335;-0.3245;-0.0104;-0.0320;
578858220707710;-0.3266;0.0225;-0.0330;
578858230828283;-0.3746;0.1418;-0.0128;
578858240927606;-0.4811;0.1152;-0.0692;
578858251026981;-0.4853;-0.0072;-0.1363;
578858261113179;-0.4470;0.0491;-0.1417;
578858271212502;-0.4385;0.1684;-0.1395;
578858281311877;-0.4523;0.0992;-0.1928;
578858291426512;-0.4140;-0.0253;-0.2780;
578858301525835;-0.3383;0.0374;-0.2908;
578858311625210;-0.2915;0.1397;-0.2972;
578858321725158;-0.2563;0.1003;-0.3547;
578858331824481;-0.2489;0.0427;-0.3952;
578858341923856;-0.2329;0.1386;-0.3941;
578858352038804;-0.2201;0.1780;-0.4176;
578858362138127;-0.1977;0.0800;-0.4783;
578858372237502;-0.1871;0.1088;-0.4953;
578858382357658;-0.1700;0.2473;-0.4591;
578858392456981;-0.1999;0.2004;-0.4517;
578858402556356;-0.2158;0.1003;-0.4762;
578858412646564;-0.2361;0.1546;-0.4421;
578858422745887;-0.2723;0.1972;-0.4080;
578858432845262;-0.3053;0.1354;-0.4069;
578858442971616;-0.3309;0.1290;-0.4154;
578858453070939;-0.3351;0.1652;-0.4282;
578858463170314;-0.3149;0.1429;-0.4549;
578858473270991;-0.2968;0.0939;-0.4261;
578858483370314;-0.2819;0.1120;-0.3824;
578858493469689;-0.2563;0.1354;-0.3398;
578858503570991;-0.1999;0.0683;-0.2993;
578858513670314;-0.0935;0.0300;-0.2471;
578858523769689;0.0003;0.0609;-0.1917;
578858533876773;0.1132;0.0555;-0.1257;
578858543976148;0.2133;0.0225;-0.0692;
578858554075523;0.3252;0.0321;-0.0415;
578858564187762;0.3678;0.0268;0.0160;
578858574287085;0.3880;-0.0019;0.0905;
578858584386460;0.3838;0.0097;0.1320;
578858594500366;0.3347;0.0033;0.1234;
578858604599689;0.2772;-0.0455;0.1586;
578858614699064;0.2250;-0.0605;0.1788;
578858624801825;0.2133;-0.0381;0.1873;
578858634901148;0.1973;-0.0083;0.1991;
578858645000523;0.1963;0.0214;0.2129;
578858655099689;0.1760;0.0609;0.2182;
578858665199064;0.1473;0.0694;0.2118;
578858675298439;0.1196;0.0736;0.1959;
578858685420471;0.1142;0.0470;0.1820;
578858695519846;0.1100;-0.0040;0.1426;
578858705619221;0.1100;0.0310;0.0959;
578858715740471;0.1164;0.0385;0.0788;
578858725839794;0.1611;-0.0477;0.0650;
578858735939169;0.1686;-0.0349;0.0373;
578858746041929;0.1537;0.0140;-0.0149;
578858756141252;0.1846;0.0055;-0.0426;
578858766240627;0.1909;0.0044;-0.0554;
578858776338387;0.1558;-0.0146;-0.0628;
578858786437710;0.1377;0.0108;-0.0884;
578858796537085;0.1334;0.0587;-0.1438;
578858806642085;0.1174;0.0491;-0.1651;
578858816741460;0.0706;0.0321;-0.1587;
578858826840835;0.0514;0.0332;-0.1704;
578858836968491;0.0226;0.0044;-0.2130;
578858847067322;0.0099;-0.0168;-0.2269;
578858857166749;0.0652;0.0214;-0.2248;
578858867321437;0.0716;-0.0136;-0.2280;
578858877420812;0.1270;-0.0232;-0.2162;
578858887520187;0.2527;0.0321;-0.2461;
578858897587583;0.3049;0.0268;-0.2514;
578858907686958;0.3582;0.0726;-0.1811;
578858917786333;0.4264;0.0864;-0.1768;
578858927943312;0.4274;0.0736;-0.2045;
578858938042687;0.4061;0.0523;-0.1928;
578858948142062;0.3688;0.0161;-0.1960;
578858958160239;0.3166;-0.0189;-0.1683;
578858968259614;0.3081;-0.0551;-0.1502;
578858978358989;0.3592;-0.0051;-0.1768;
578858988483572;0.3465;0.0012;-0.1672;
578858998582947;0.3454;-0.0242;-0.1236;
578859008682322;0.3507;0.0278;-0.1246;
578859018799666;0.3454;0.0502;-0.1012;
578859028898989;0.3134;0.0268;-0.0895;
578859038998364;0.3092;-0.0104;-0.0927;
578859049118833;0.3347;0.0289;-0.0501;
578859059220552;0.4242;0.0672;-0.0479;
578859069322270;0.5093;0.0342;-0.0288;
578859079414145;0.5615;0.0150;-0.0043;
578859089515916;0.5988;0.0129;0.0138;
578859099617635;0.6308;-0.0136;0.0831;
578859109713208;0.6382;-0.0328;0.0905;
578859119814979;0.6489;-0.0029;0.1012;
578859129916697;0.6094;-0.0274;0.1618;
578859140017166;0.5700;-0.0551;0.1799;
578859150118937;0.5114;0.0012;0.1842;
578859160220656;0.4700;-0.0083;0.1842;
578859170327531;0.3869;-0.0519;0.1671;
578859180429197;0.2186;-0.0903;0.1991;
578859190530916;0.1036;-0.0626;0.1543;
578859200649562;0.0983;0.0257;0.1107;
578859210751281;0.1111;0.0278;0.1075;
578859220853052;0.0897;-0.0391;0.0767;
578859230945604;0.0322;0.0012;0.0607;
578859241047270;0.0770;0.0055;0.0469;
578859251148989;0.1228;0.0140;0.0224;
578859261265291;0.1313;0.0278;0.0479;
578859271367062;0.1579;0.0108;0.0192;
578859281468729;0.1483;-0.0189;0.0032;
578859291566437;0.1632;-0.0072;-0.0021;
578859301668156;0.1707;-0.0083;0.0266;
578859311769874;0.1792;-0.0264;0.0405;
578859321862270;0.1611;-0.0775;0.0096;
578859331963937;0.1419;-0.0509;0.0160;
578859342065656;0.1558;-0.0370;0.0096;
578859352172843;0.1366;-0.0455;0.0405;
578859362274510;0.1569;-0.0019;0.0245;
578859372376281;0.1622;0.0214;0.0170;
578859382478572;0.1686;0.0278;0.0234;
578859392580239;0.1537;0.0278;0.0320;
578859402681958;0.1430;0.0204;0.0511;
578859412795604;0.1409;0.0225;0.0458;
578859422897322;0.1345;0.0161;0.0650;
578859432999041;0.1185;-0.0328;0.0501;
578859443100812;0.0695;-0.0839;0.0447;
578859453202583;0.0237;-0.0626;0.0373;
578859463304249;0.0375;-0.0328;0.0447;
578859473417895;0.0631;-0.0115;0.0458;
578859483519614;0.0748;-0.0189;0.0373;
578859493621333;0.0471;-0.0264;0.0490;
578859503712479;0.0194;-0.0083;0.0426;
578859513814197;0.0056;0.0257;-0.0011;
578859523915916;0.0184;0.0395;0.0288;
578859534015552;-0.0221;0.0012;0.0522;
578859544117218;-0.0360;-0.0413;0.0660;
578859554218937;-0.0903;-0.0764;0.0618;
578859564335708;-0.0743;-0.0541;0.0628;
578859574437427;-0.1009;0.0800;0.0533;
578859584539145;-0.0317;0.1386;0.0873;
578859594641385;0.0024;-0.0264;0.1065;
578859604743104;-0.0583;-0.1340;0.1479;
578859614844822;-0.1658;-0.0871;0.1149;
578859624948104;-0.1775;0.0119;0.1298;
578859635049822;-0.1860;0.0534;0.1224;
578859645151541;-0.2084;0.0012;0.1575;
578859655261333;-0.2702;-0.0115;0.1256;
578859665363052;-0.3106;0.0140;0.1341;
578859675464770;-0.3511;0.0640;0.0884;
578859685557166;-0.3288;0.0843;0.0980;
578859695658885;-0.3469;0.0246;0.1138;
578859705760604;-0.3373;0.0353;0.1245;
578859715828833;-0.3064;0.0811;0.0788;
578859725930552;-0.2340;0.0885;0.0969;
578859736032270;-0.1988;0.0065;0.0820;
578859746168677;-0.1573;0.0108;0.1117;
578859756270395;-0.1232;0.0374;0.1001;
578859766372114;-0.0786;0.0321;0.1213;
578859776469354;-0.0711;0.0268;0.0863;
578859786571072;-0.0775;0.0374;0.1055;
578859796672739;-0.0594;0.0395;0.0873;
578859806785916;-0.0562;0.0523;0.0799;
578859816887635;-0.0541;0.0204;0.0746;
578859826989354;-0.0839;-0.0381;0.0692;
578859837110604;-0.0807;-0.0892;0.0746;
578859847212322;-0.1095;0.0055;0.0224;
578859857314041;-0.0391;0.0790;0.0330;
578859867402739;-0.0306;0.0087;-0.0043;
578859877504458;-0.0775;-0.0999;0.0011;
578859887606177;-0.0732;-0.0008;-0.0266;
578859897704197;-0.0061;0.1365;-0.0128;
578859907805916;0.0184;0.1162;-0.0224;
578859917907635;-0.0530;0.0097;-0.0192;
578859928016229;-0.0605;-0.0253;-0.0064;
578859938117947;-0.0391;-0.0051;-0.0256;
578859948219666;-0.0083;0.0012;-0.0128;
578859958350031;-0.0296;-0.0647;-0.0160;
578859968451749;-0.0285;-0.0743;-0.0064;
578859978553468;-0.0093;-0.0636;-0.0064;
578859988649354;-0.0200;-0.0370;0.0170;
578859998751072;-0.0242;-0.0274;0.0117;
578860008852791;-0.0487;-0.0413;-0.0021;
578860018935083;-0.0253;0.0182;0.0064;
578860029036802;-0.0136;0.0640;0.0213;
578860039138520;-0.0306;0.0651;0.0288;
578860049263520;-0.0636;0.0332;-0.0075;
578860059365812;-0.0626;0.0161;-0.0021;
578860069468156;-0.0338;0.0374;0.0032;
578860079563208;-0.0168;-0.0146;-0.0053;
578860089665499;-0.0051;-0.0274;-0.0011;
578860099767843;-0.0253;0.0193;-0.0128;
578860109878781;0.0035;0.0449;-0.0138;
578860119981072;-0.0008;0.0481;-0.0320;
578860130083416;0.0077;-0.0104;-0.0085;
578860140150604;-0.0178;-0.0029;-0.0170;
578860150252895;-0.0242;-0.0051;-0.0341;
578860160355239;-0.0136;-0.0445;-0.0383;
578860170470708;-0.0466;0.0012;-0.0479;
578860180572999;-0.0360;0.0119;-0.0671;
578860190675343;-0.0029;-0.0115;-0.0660;
578860200789041;-0.0253;-0.0285;-0.0756;
578860210891333;-0.0125;0.0012;-0.0820;
578860220993677;0.0130;-0.0072;-0.0927;
578860231094562;-0.0136;-0.0285;-0.0437;
578860241196854;0.0109;0.2164;-0.0490;
578860251299197;0.0514;0.2292;-0.1150;
578860261400812;0.0738;-0.0871;-0.0692;
578860271503104;-0.0253;-0.2256;-0.0383;
578860281605447;-0.0807;-0.0807;-0.1012;
578860291728937;-0.0296;-0.0381;-0.1363;
578860301831229;0.0407;-0.0221;-0.1246;
578860311933572;0.0354;0.0342;-0.1118;
578860322012895;0.0716;0.0268;-0.1172;
578860332115187;0.0855;0.0289;-0.1278;
578860342217531;0.0951;0.0289;-0.1577;
578860352318208;0.0855;0.0513;-0.1321;
578860362420499;0.0727;0.0843;-0.1363;
578860372522843;0.0940;0.0694;-0.1150;
578860382619718;0.0578;0.0566;-0.1012;
578860392722010;0.0344;0.0129;-0.1214;
578860402824302;0.0312;-0.0296;-0.1097;
578860412936958;0.0184;-0.0551;-0.0948;
578860423039249;0.0258;-0.0189;-0.0969;
578860433141593;0.0205;0.0023;-0.1001;
578860443257479;0.0471;0.0108;-0.0650;
578860453359822;0.0503;0.0033;-0.0543;
578860463462114;0.0759;0.0033;-0.0320;
578860473548885;0.0503;-0.1638;-0.0085;
578860483651177;0.0407;-0.0892;-0.0181;
578860493753520;0.0248;0.0214;-0.0298;
578860503852062;0.0866;0.1503;-0.0064;
578860513954354;0.0791;0.0736;0.0266;
578860524056697;0.0919;-0.0189;0.0309;
578860534160708;0.0365;0.0193;0.0320;
578860544262999;0.0482;0.0332;0.0234;
578860554365343;0.0514;-0.0264;0.0288;
578860564473208;0.0578;-0.0210;0.0511;
578860574575499;0.0450;0.0055;0.0522;
578860584677843;0.0397;-0.0157;0.0277;
578860594767583;0.0716;-0.0775;0.0117;
578860604869874;0.0482;-0.1063;0.0277;
578860614972218;0.0493;-0.0679;0.0096;
578860625092999;0.0812;0.0108;0.0096;
578860635195343;0.1174;0.0374;0.0160;
578860645297635;0.1334;0.0172;0.0170;
578860655398885;0.1132;-0.0093;0.0373;
578860665501177;0.0738;0.0300;-0.0032;
578860675603520;0.0887;0.0321;-0.0128;
578860685711333;0.1036;0.0140;0.0202;
578860695813677;0.0844;-0.0157;0.0224;
578860705915968;0.0450;-0.0658;0.0011;
578860716032791;0.0397;-0.0477;0.0021;
578860726135135;0.0642;-0.0189;-0.0160;
578860736237427;0.0663;0.0097;-0.0170;
578860746318729;0.0663;0.0182;-0.0096;
578860756421020;0.0652;0.0140;-0.0149;
578860766523364;0.0450;0.0278;-0.0373;
578860776624458;0.0386;0.0523;-0.0309;
578860786726802;0.0652;0.0119;-0.0309;
578860796829093;0.0663;-0.0519;-0.0320;
578860806927895;0.0514;-0.0296;-0.0447;
578860817030239;0.0620;0.0321;-0.0362;
578860827132531;0.0812;-0.0072;-0.0309;
578860837291541;0.0674;-0.0317;-0.0320;
578860847393885;0.0620;-0.0093;-0.0256;
578860857496177;0.0802;0.0076;-0.0096;
578860867542687;0.0983;0.0150;-0.0320;
578860877645031;0.1121;-0.0125;-0.0245;
578860887747374;0.1004;-0.0285;0.0107;
578860897836958;0.0897;-0.0370;0.0043;
578860907939249;0.1068;-0.0391;-0.0277;
578860918041593;0.1132;-0.0083;-0.0309;
578860928144458;0.1174;-0.0125;-0.0032;
578860938246749;0.1473;-0.0178;0.0064;
578860948349041;0.1387;0.0150;-0.0181;
578860958471854;0.1462;0.0321;-0.0256;
578860968574145;0.1632;0.0129;-0.0138;
578860978676489;0.1696;-0.0210;-0.0053;
578860988792374;0.1451;-0.0423;0.0075;
578860998894666;0.1196;-0.0445;0.0085;
578861008996958;0.0993;-0.0232;-0.0149;
578861019078624;0.1153;0.1162;-0.0469;
578861029180916;0.1718;0.1908;-0.0447;
578861039283260;0.2612;0.0182;-0.0245;
578861049406854;0.3337;-0.2522;0.0266;
578861059509249;0.2197;-0.2959;0.0628;
578861069611697;0.0834;-0.1052;0.0288;
578861079700708;0.1441;0.0268;0.0032;
578861089803104;0.1888;0.0161;0.0298;
578861099905552;0.2676;0.0257;0.0202;
578861110002583;0.2059;0.0822;0.0234;
578861120105031;0.2165;0.0832;0.0224;
578861130207427;0.2570;0.0374;0.0405;
578861140323416;0.2304;0.0076;0.0575;
578861150425812;0.1494;-0.0083;0.0597;
578861160528260;0.1217;-0.0232;0.0298;
578861170620187;0.1345;-0.0136;0.0362;
578861180722583;0.1569;-0.0423;0.0682;
578861190825031;0.1537;-0.0445;0.0746;
578861200937479;0.1515;0.0012;0.0628;
578861211039874;0.1547;-0.0722;0.0543;
578861221142322;0.1089;-0.2202;0.0735;
578861231249249;0.0929;-0.1798;0.0842;
578861241351645;0.1142;0.0609;0.0788;
578861251454093;0.1931;0.2494;0.0927;
578861261553520;0.2847;0.1716;0.1245;
578861271655916;0.3209;-0.0360;0.1213;
578861281758364;0.1654;-0.0104;0.1405;
578861291853729;0.0674;0.0502;0.1320;
578861301956124;0.1302;-0.0093;0.1458;
578861312058572;0.1089;-0.0317;0.1192;
578861322161854;0.0375;0.0598;0.0959;
578861332264249;0.0961;0.0449;0.1458;
578861342366697;0.1441;-0.0711;0.1586;
578861352467843;0.0876;-0.1201;0.1575;
578861362570239;-0.0125;-0.0200;0.1543;
578861372672687;0.0258;-0.0083;0.1618;
578861382760395;0.0929;-0.0583;0.1692;
578861392862791;0.0407;-0.0157;0.1703;
578861402965239;0.0280;0.0342;0.1969;
578861413087895;0.0333;-0.0093;0.1895;
578861423190343;0.0099;0.0406;0.1831;
578861433292739;-0.0146;0.0513;0.1820;
578861443392583;0.0152;0.0300;0.1980;
578861453495031;-0.0157;0.0193;0.1991;
578861463597427;-0.0498;0.0417;0.2097;
578861473696333;-0.0732;0.0332;0.1959;
578861483798729;-0.0498;-0.0083;0.1618;
578861493901177;-0.0871;-0.0008;0.1724;
578861504000395;-0.1116;-0.0125;0.1682;
578861514102791;-0.0711;-0.0178;0.1660;
578861524205239;-0.0892;-0.0264;0.1660;
578861534305187;-0.0988;0.0182;0.1607;
578861544407583;-0.0967;0.0619;0.1703;
578861554510031;-0.0690;0.0097;0.1714;
578861564626749;-0.0850;-0.0136;0.1671;
578861574729145;-0.1583;0.0204;0.1746;
578861584831645;-0.1573;0.0374;0.1927;
578861594931541;-0.1658;-0.0146;0.1682;
578861605033937;-0.2073;-0.0562;0.1628;
578861615136385;-0.2670;0.0023;0.1394;
578861625231645;-0.2808;0.0662;0.1213;
578861635334093;-0.2318;0.0438;0.1107;
578861645436541;-0.2425;-0.0530;0.1065;
578861655541958;-0.2904;0.0214;0.0991;
578861665644354;-0.3565;0.1088;0.0746;
578861675746802;-0.3043;0.0364;0.0511;
578861685835083;-0.3043;-0.0178;0.0447;
578861695937479;-0.3895;-0.0104;0.0234;
578861706039927;-0.3788;-0.0104;0.0021;
578861716157843;-0.3437;-0.0306;0.0117;
578861726260291;-0.3288;-0.0562;0.0021;
578861736362739;-0.3075;0.0182;-0.0085;
578861746451333;-0.2755;0.0491;-0.0181;
578861756553781;-0.1818;0.0193;-0.0128;
578861766656177;-0.1775;-0.0083;-0.0021;
578861776754458;-0.1519;0.0055;-0.0245;
578861786856854;-0.1360;0.0395;-0.0415;
578861796959302;-0.1201;0.0534;-0.0245;
578861807079562;-0.1253;0.0491;-0.0149;
578861817182010;-0.1285;0.2025;-0.0426;
578861827284406;-0.1180;0.0960;-0.0320;
578861837376281;-0.1212;-0.2245;-0.0011;
578861847478677;-0.1487;-0.2106;-0.0170;
578861857581124;-0.1796;0.0108;-0.0373;
578861867715499;-0.1253;0.0609;-0.0383;
578861877817895;-0.0573;-0.0051;-0.0202;
578861887920343;-0.0615;0.0300;-0.0011;
578861898001749;-0.1041;0.1216;-0.0021;
578861908104145;-0.0988;0.0640;-0.0032;
578861918206593;-0.1242;-0.0072;-0.0309;
578861928343885;-0.1594;0.0150;-0.0245;
578861938446333;-0.1562;0.0459;-0.0234;
578861948548781;-0.1242;0.0491;-0.0373;
578861958636854;-0.1370;0.0449;-0.0341;
578861968739249;-0.1413;0.0491;-0.0650;
578861978841697;-0.1317;0.0353;-0.0842;
578861988930395;-0.1423;-0.0892;-0.0991;
578861999032791;-0.1126;-0.0402;-0.0980;
578862009135239;-0.0967;0.2068;-0.0756;
578862019238364;-0.0285;0.1024;-0.0820;
578862029340760;-0.0136;-0.1116;-0.0639;
578862039443208;-0.1285;-0.0807;-0.1023;
578862049548104;-0.1636;0.0374;-0.1065;
578862059650499;-0.0871;-0.0083;-0.0927;
578862069752947;-0.0764;-0.0977;-0.1140;
578862079840708;-0.1052;-0.0743;-0.1012;
578862089943104;-0.0967;-0.0019;-0.1161;
578862100045552;-0.0274;0.0683;-0.1566;
578862110165083;-0.0093;0.0864;-0.1342;
578862120267531;0.0184;0.0981;-0.1182;
578862130369927;-0.0072;0.0289;-0.1023;
578862140470187;-0.0029;-0.0402;-0.1268;
578862150572583;-0.0541;-0.0317;-0.1395;
578862160675031;-0.0402;-0.0477;-0.1619;
578862170762062;-0.0200;-0.0754;-0.1214;
578862180864510;-0.0115;-0.0636;-0.0980;
578862190966906;0.0205;-0.0019;-0.0735;
578862201081802;0.0386;0.0609;-0.0980;
578862211184197;0.0887;0.0012;-0.0842;
578862221286593;0.0940;-0.0306;-0.0724;
578862231383729;0.0557;0.0630;-0.0554;
578862241486124;0.0695;0.0971;-0.0692;
578862251588572;0.0993;0.0609;-0.1033;
578862261688312;0.0578;0.0353;-0.0746;
578862271790708;0.0194;-0.0104;-0.0618;
578862281893156;0.0099;-0.0530;-0.0692;
578862292000499;0.0045;-0.0615;-0.0969;
578862302102947;0.0120;-0.0306;-0.0820;
578862312205343;0.0237;-0.0317;-0.0639;
578862322304666;0.0333;-0.0360;-0.0735;
578862332407062;0.0258;-0.0019;-0.0735;
578862342509510;0.0397;0.0406;-0.0490;
578862352600499;0.0450;0.0747;-0.0330;
578862362702843;0.0365;0.0225;-0.0362;
578862372805239;0.0088;-0.0445;-0.0511;
578862382903624;0.0035;-0.0306;-0.0511;
578862393005968;0.0024;-0.0019;-0.0373;
578862403108364;0.0120;-0.0466;-0.0597;
578862413225395;-0.0061;-0.0807;-0.0639;
578862423327739;-0.0296;-0.0477;-0.0554;
578862433430083;-0.0093;0.0332;-0.0703;
578862443535395;0.0312;0.0843;-0.0778;
578862453637739;0.0418;0.0726;-0.0692;
578862463740083;0.0301;0.0332;-0.0756;
578862473828729;-0.0093;0.0129;-0.0458;
578862483931072;-0.0328;0.0204;-0.0469;
578862494033416;-0.0370;0.0023;-0.0575;
578862504140239;-0.0477;-0.0402;-0.0650;
578862514242583;-0.0541;-0.0274;-0.0767;
578862524344979;-0.0264;-0.0253;-0.0671;
578862534445187;0.0035;-0.0115;-0.0618;
578862544547531;0.0056;-0.0296;-0.0873;
578862554649927;0.0120;-0.0104;-0.1001;
578862564758416;0.0162;0.0236;-0.0650;
578862574860343;0.0365;0.1024;-0.0756;
578862584962687;0.0461;0.0449;-0.0959;
578862595065031;0.0194;-0.0519;-0.1087;
578862605174093;-0.0306;-0.0370;-0.1055;
578862615276385;-0.0029;-0.0477;-0.1193;
578862625378781;0.0077;-0.0445;-0.1140;
578862635461802;0.0322;-0.0008;-0.1150;
578862645564145;0.0375;0.0129;-0.1108;
578862655666489;0.0663;-0.0189;-0.1523;
578862665781437;0.0365;-0.0168;-0.1406;
578862675883781;0.0439;-0.0008;-0.1417;
578862685986124;0.0610;0.0300;-0.1470;
578862696090083;0.0748;0.0502;-0.1726;
578862706192479;0.0908;0.0779;-0.1640;
578862716294822;0.1121;0.0310;-0.1395;
578862726395187;0.1164;-0.0328;-0.1662;
578862736497531;0.1260;0.0172;-0.1822;
578862746599927;0.1750;0.0236;-0.1417;
578862756721854;0.1984;-0.0317;-0.1268;
578862766824197;0.2261;-0.0413;-0.1353;
578862776926541;0.2314;-0.0061;-0.1417;
578862787026177;0.2708;-0.0530;-0.1118;
578862797128572;0.2762;-0.0722;-0.0703;
578862807230916;0.2570;-0.0487;-0.0586;
578862817309927;0.2889;-0.0221;-0.0447;
578862827412270;0.3188;0.0236;-0.0682;
578862837514614;0.3262;0.0981;-0.0628;
578862847612479;0.3209;0.0598;-0.0224;
578862857714822;0.2953;-0.0477;0.0043;
578862867817166;0.2314;-0.0264;0.0138;
578862877927895;0.2133;0.0342;0.0224;
578862888030239;0.2208;0.0332;0.0107;
578862898132583;0.1888;-0.0391;0.0149;
578862908232895;0.1547;-0.1446;0.0426;
578862918335239;0.1473;-0.1308;0.0724;
578862928437583;0.1238;-0.0647;0.0607;
578862938560291;0.1526;-0.0029;0.0607;
578862948662635;0.1877;0.0108;0.0373;
578862958764979;0.1707;-0.0146;0.0724;
578862968836749;0.1526;-0.0136;0.0490;
578862978939093;0.1611;0.0193;0.0543;
578862989041489;0.1622;0.0332;0.0714;
578862999164666;0.1782;0.0289;0.0650;
578863009267010;0.1984;0.0864;0.0426;
578863019369406;0.2101;0.1088;0.0352;
578863029472895;0.2133;0.0310;0.0639;
578863039575239;0.1824;-0.1201;0.0873;
578863049677635;0.1547;-0.0754;0.0799;
578863059782999;0.1611;0.0949;0.0746;
578863069885343;0.1931;-0.0072;0.0905;
578863079987687;0.2005;-0.0828;0.1065;
578863090084666;0.1057;0.0044;0.1138;
578863100187010;0.1260;-0.0061;0.1117;
578863110289354;0.1632;-0.0146;0.1033;
578863120394666;0.1228;-0.0051;0.0959;
578863130497010;0.0823;-0.0157;0.0927;
578863140599354;0.0684;0.0438;0.0905;
578863150714249;0.0759;0.0193;0.0873;
578863160816593;0.0983;-0.0775;0.0820;
578863170918937;0.0173;-0.0881;0.1085;
578863181022999;-0.0200;-0.0264;0.0778;
578863191125343;0.0184;0.0044;0.0735;
578863201227687;0.0120;-0.0221;0.0895;
578863211314666;0.0088;-0.0274;0.1044;
578863221417010;0.0056;0.0395;0.0937;
578863231519354;0.0514;0.0651;0.1001;
578863241631020;0.0887;0.0470;0.0703;
578863251733364;0.0684;0.1013;0.0820;
578863261835708;0.0674;0.0395;0.0831;
578863271943312;0.0919;-0.0328;0.0916;
578863282045656;0.0652;-0.0008;0.0671;
578863292147999;0.0738;-0.0072;0.0820;
578863302247062;0.0866;-0.0498;0.0746;
578863312349406;0.0525;-0.0391;0.1138;
578863322451749;0.0684;0.0097;0.0895;
578863332557166;0.0780;-0.0391;0.1128;
578863342659510;0.0450;-0.0466;0.0873;
578863352761906;0.0365;-0.0019;0.0810;
578863362853312;0.0631;0.0225;0.1117;
578863372955656;0.0525;0.0470;0.0884;
578863383057999;0.0439;0.0193;0.0820;
578863393174041;0.0226;-0.0189;0.0810;
578863403276385;0.0003;0.0001;0.0884;
578863413378729;0.0045;0.0449;0.0586;
578863423479145;0.0375;0.0395;0.0501;
578863433581489;0.0152;0.0268;0.0724;
578863443683833;0.0130;0.0108;0.0916;
578863453782114;0.0077;-0.0189;0.1055;
578863463884458;-0.0040;-0.1190;0.0778;
578863473986802;-0.0029;-0.0253;0.0746;
578863484088468;-0.0125;0.0342;0.0703;
578863494190812;0.0418;-0.0146;0.0778;
578863504293156;0.0333;0.0129;0.0682;
578863514397583;0.0003;0.0662;0.0490;
578863524499927;0.0290;0.0577;0.0831;
578863534602270;0.0237;0.0385;0.0607;
578863544701958;0.0152;0.0129;0.0511;
578863554804302;-0.0157;-0.0157;0.0565;
578863564906645;-0.0210;-0.0157;0.0650;
578863575014041;-0.0274;-0.0402;0.0756;
578863585116541;-0.0615;-0.0732;0.0660;
578863595219093;-0.0615;-0.0807;0.0320;
578863605317583;-0.0509;0.0001;0.0746;
578863615420083;-0.0349;-0.0019;0.0607;
578863625522635;-0.0051;-0.0285;0.0980;
578863635612999;-0.0338;0.0491;0.0533;
578863645715552;-0.0253;-0.0040;0.0458;
578863655818052;-0.0104;-0.0796;0.0735;
578863665932895;-0.0423;0.0204;0.0437;
578863676035395;-0.0732;0.1280;0.0138;
578863686137947;-0.0178;0.1067;0.0202;
578863696234874;-0.0253;0.0108;0.0692;
578863706337374;-0.0839;-0.0200;0.0469;
578863716439927;-0.1095;-0.0328;0.0202;
578863726546229;-0.0924;-0.0690;0.0415;
578863736648729;-0.0711;-0.0541;0.0554;
578863746751281;-0.0711;-0.0083;0.0352;
578863756839979;-0.0274;0.0150;0.0075;
578863766942479;-0.0232;0.0108;0.0202;
578863777044979;-0.0296;-0.0594;0.0490;
578863787159874;-0.0019;0.0875;0.0224;
578863797262374;-0.0498;0.1493;0.0149;
578863807364874;-0.0296;0.0065;-0.0021;
578863817451749;-0.0743;-0.0679;0.0426;
578863827554302;-0.1328;-0.0871;0.0256;
578863837656854;-0.1487;-0.0551;-0.0096;
578863847770499;-0.1063;-0.0541;-0.0266;
578863857872999;-0.0530;0.0001;0.0309;
578863867975499;-0.0551;0.0513;0.0096;
578863878068312;-0.0306;-0.0178;0.0213;
578863888170812;-0.0413;-0.0253;0.0309;
578863898273364;-0.0583;0.0630;0.0085;
578863908411645;-0.0370;0.0726;-0.0021;
578863918514145;-0.0466;0.0790;-0.0011;
578863928616697;-0.0679;0.0033;0.0032;
578863938682062;-0.1052;-0.0668;-0.0160;
578863948784562;-0.1105;-0.0210;-0.0426;
578863958887114;-0.1084;0.0427;-0.0075;
578863969017791;-0.0786;0.0055;-0.0426;
578863979120291;-0.0498;-0.0317;-0.0309;
578863989222843;-0.0402;-0.0232;-0.0117;
578863999307687;-0.0210;-0.0040;-0.0107;
578864009410187;-0.0072;0.0129;0.0170;
578864019512739;-0.0019;-0.0029;-0.0458;
578864029616749;-0.0306;-0.0210;-0.0383;
578864039719249;-0.0413;0.0076;-0.0330;
578864049821802;-0.0253;0.0236;-0.0373;
578864059925499;-0.0168;-0.0146;-0.0597;
578864070027999;-0.0551;-0.0157;-0.0501;
578864080130552;-0.0711;-0.0668;-0.0852;
578864090229666;-0.0274;-0.0945;-0.0991;
578864100332166;-0.0519;-0.0594;-0.0927;
578864110434718;-0.0072;0.0246;-0.1055;
578864120563729;0.0344;0.0406;-0.0895;
578864130666229;0.0418;-0.0051;-0.0756;
578864140768729;0.0237;0.0598;-0.1257;
578864150847270;0.0237;0.1280;-0.1161;
578864160949770;0.0738;0.1035;-0.1182;
578864171052322;0.0589;-0.0072;-0.0831;
578864181166124;-0.0146;-0.0210;-0.1353;
578864191268624;-0.0232;0.0417;-0.1278;
578864201371177;0.0141;-0.0455;-0.1129;
578864211449041;0.0067;-0.0498;-0.1214;
578864221551541;-0.0115;-0.0157;-0.1363;
578864231654093;0.0461;-0.0402;-0.1630;
578864241770083;0.0525;-0.0754;-0.1108;
578864251872583;0.0663;-0.0551;-0.1055;
578864261975135;0.0567;0.0214;-0.1427;
578864272077687;0.0919;0.0289;-0.1257;
578864282190291;0.0961;-0.0370;-0.1268;
578864292292791;0.1132;-0.0360;-0.1406;
578864302395291;0.1132;0.0502;-0.1225;
578864312477374;0.1281;0.0779;-0.1023;
578864322579927;0.1473;-0.0093;-0.0831;
578864332682427;0.1153;-0.1052;-0.0682;
578864342787895;0.0919;-0.0956;-0.0842;
578864352890395;0.1153;0.0012;-0.0756;
578864362992947;0.1590;0.0427;-0.0469;
578864373101229;0.2091;-0.0210;-0.0362;
578864383203729;0.1835;-0.0839;-0.0426;
578864393306281;0.1483;-0.0061;-0.0330;
578864403416749;0.1515;0.1258;-0.0426;
578864413519249;0.2016;0.1099;-0.0565;
578864423621802;0.2229;-0.0551;-0.0128;
578864433718833;0.1121;-0.0945;0.0373;
578864443821333;0.0738;-0.0583;0.0128;
578864453923885;0.1366;-0.0178;0.0011;
578864464020083;0.1366;0.0182;0.0117;
578864474122583;0.1313;0.0001;0.0117;
578864484225135;0.1079;-0.0466;0.0330;
578864494328208;0.1036;-0.0509;0.0266;
578864504430708;0.1228;0.0246;0.0160;
578864514533260;0.1356;0.0885;0.0149;
578864524637583;0.1356;-0.0083;0.0224;
578864534740083;0.0791;-0.0754;0.0234;
578864544842635;0.0471;0.0491;0.0043;
578864554940552;0.1057;0.0726;0.0234;
578864565043052;0.0834;-0.0562;0.0138;
578864575145604;0.0599;-0.0551;0.0011;
578864585263104;0.0557;0.0268;0.0160;
578864595365604;0.1217;0.0268;0.0096;
578864605468156;0.1185;0.0150;0.0352;
578864615549145;0.0929;-0.0317;0.0362;
578864625651697;0.1089;0.0257;0.0170;
578864635754197;0.1270;0.0172;0.0426;
578864645876333;0.0897;-0.0178;0.0245;
578864655978833;0.0684;-0.0029;0.0064;
578864666081385;0.0652;0.0001;0.0330;
578864676182479;0.0599;-0.0242;0.0330;
578864686284979;0.0557;-0.0178;0.0256;
578864696387531;0.0652;0.0012;-0.0021;
578864706472895;0.1015;-0.0221;0.0277;
578864716575395;0.0951;0.0300;0.0352;
578864726677947;0.0919;0.0364;0.0511;
578864736782166;0.0929;0.0055;0.0032;
578864746884666;0.0929;0.0268;0.0256;
578864756987218;0.1153;0.0449;0.0607;
578864767094041;0.1089;0.0822;0.0511;
578864777196541;0.0844;0.0928;0.0352;
578864787299041;0.0471;-0.0051;0.0554;
578864797425395;0.0312;-0.0903;0.0703;
578864807527895;0.0184;-0.0700;0.0714;
578864817630447;0.0557;-0.0328;0.0373;
578864827764093;0.0983;-0.0210;0.0533;
578864837866645;0.1153;0.0055;0.0959;
578864847969145;0.0993;0.0310;0.0842;
578864858010812;0.1047;0.0907;0.0650;
578864868113312;0.0919;0.0513;0.1096;
578864878215864;0.0514;0.0023;0.1075;
578864888357010;0.0205;0.0640;0.0820;
578864898459510;0.0237;0.0555;0.0724;
578864908562010;0.0184;-0.0178;0.0895;
578864918664510;-0.0210;-0.0605;0.1170;
578864928736333;-0.0509;-0.0370;0.1149;
578864938838833;-0.0328;0.0236;0.0937;
578864948941385;0.0067;0.0353;0.1234;
578864959041541;0.0386;-0.0477;0.1245;
578864969144041;-0.0072;-0.0647;0.0991;
578864979246593;0.0077;-0.0051;0.1170;
578864989339874;0.0088;0.0076;0.1085;
578864999442374;0.0194;0.0491;0.1023;
578865009544927;-0.0115;0.0481;0.1023;
578865019685083;0.0003;-0.0466;0.0778;
578865029787583;-0.0274;-0.0754;0.1055;
578865039890083;-0.0509;0.0012;0.0746;
578865049956437;0.0130;0.0672;0.0778;
578865060058937;0.0290;0.0683;0.0820;
578865070161489;0.0301;0.0225;0.0980;
578865080277479;0.0471;0.0449;0.0863;
578865090379979;0.0578;0.0566;0.0927;
578865100482531;0.0557;-0.0104;0.0756;
578865110580291;-0.0019;-0.0008;0.1107;
578865120682791;-0.0210;0.0140;0.0607;
578865130785343;-0.0093;-0.0328;0.0533;
578865140895395;-0.0168;-0.0722;0.0533;
578865150997895;0.0056;-0.0402;0.0810;
578865161100447;0.0141;0.0044;0.0820;
578865171202479;0.0365;0.0012;0.0682;
578865181304979;0.0344;-0.0370;0.0799;
578865191407531;0.0301;-0.0935;0.0756;
578865201508729;0.0322;0.0140;0.0884;
578865211611229;0.0226;-0.0434;0.0937;
578865221713781;0.0003;-0.1031;0.0980;
578865231810916;-0.0423;0.0523;0.0842;
578865241913416;-0.0168;0.1354;0.0884;
578865252015968;0.0248;0.0885;0.0671;
578865262114562;-0.0083;0.0332;0.0352;
578865272217062;-0.0551;0.0161;0.0916;
578865282319614;-0.0818;0.0374;0.0842;
578865292426749;-0.0700;-0.0498;0.0820;
578865302529145;-0.0818;-0.1031;0.0746;
578865312631541;-0.1137;-0.0168;0.0650;
578865322738208;-0.0871;0.0214;0.0799;
578865332840604;-0.0146;0.1333;0.0831;
578865342942999;-0.0285;0.1620;0.0490;
578865353037791;-0.0775;-0.0711;0.0469;
578865363140187;-0.1253;-0.1851;0.0607;
578865373242583;-0.2126;-0.0967;0.0458;
578865383354458;-0.2052;-0.0029;-0.0064;
578865393456854;-0.1306;-0.0477;-0.0138;
578865403559249;-0.0881;-0.0381;0.0021;
578865413656333;-0.1317;0.0417;0.0128;
578865423758729;-0.0530;0.1045;-0.0149;
578865433861124;-0.0530;0.1045;0.0202;
578865443966958;-0.0732;0.0204;0.0053;
578865454069354;-0.1031;0.0364;-0.0181;
578865464171749;-0.1020;0.0491;-0.0256;
578865474273885;-0.0754;0.0119;-0.0415;
578865484376281;-0.0722;-0.0317;-0.0075;
578865494478677;-0.0860;-0.0328;-0.0011;
578865504568833;-0.0477;0.0023;-0.0224;
578865514671229;-0.0274;-0.0647;0.0075;
578865524773624;0.0045;-0.0903;0.0064;
578865534886749;-0.0349;0.0768;-0.0170;
578865544989145;-0.0029;0.0960;0.0032;
578865555091541;0.0035;0.0619;-0.0011;
578865565194302;-0.0668;-0.0072;-0.0021;
578865575296697;-0.1009;-0.0967;0.0075;
578865585399093;-0.0828;-0.0764;-0.0043;
578865595509614;-0.0945;-0.0423;-0.0160;
578865605611958;-0.0328;0.0129;-0.0021;
578865615714354;-0.0136;0.0790;0.0128;
578865625809145;0.0226;0.0885;0.0266;
578865635911541;0.0067;0.1013;0.0181;
578865646013937;-0.0477;0.0715;-0.0117;
578865656118416;-0.0722;0.0097;0.0192;
578865666220812;-0.0871;0.0001;-0.0234;
578865676323208;-0.0818;-0.0136;-0.0298;
578865686426541;-0.0615;-0.0519;-0.0192;
578865696528937;-0.0530;-0.0391;-0.0352;
578865706631333;-0.0562;0.0225;-0.0138;
578865716753729;-0.0381;0.0491;-0.0224;
578865726856124;-0.0274;-0.0242;0.0085;
578865736958468;-0.0200;-0.1126;-0.0224;
578865747037479;-0.0264;-0.0690;-0.0618;
578865757139874;-0.0019;-0.0253;-0.0863;
578865767242270;-0.0051;-0.0360;-0.0554;
578865777356541;-0.0040;-0.0477;-0.0628;
578865787458885;-0.0189;0.0129;-0.0842;
578865797561281;-0.0040;0.0459;-0.0820;
578865807661333;0.0269;0.0427;-0.0895;
578865817763677;-0.0040;0.0289;-0.0692;
578865827866072;0.0067;0.1248;-0.1033;
578865837960499;0.0184;-0.0242;-0.0767;
578865848062895;0.0312;-0.3236;-0.0181;
578865858165291;-0.0157;-0.2362;-0.0607;
578865868251697;-0.0668;0.0427;-0.0884;
578865878354093;0.0184;0.2547;-0.1001;
578865888456489;0.1249;0.2292;-0.1097;
578865898579614;0.0727;0.0992;-0.1097;
578865908681958;-0.0210;0.0278;-0.0778;
578865918784406;-0.0210;-0.0040;-0.0597;
578865928880395;-0.0253;-0.0210;-0.0650;
578865938982739;-0.0509;-0.0839;-0.0746;
578865949085187;-0.0296;-0.1425;-0.0298;
578865959194145;0.0013;0.0747;-0.0650;
578865969296541;0.0652;0.2270;-0.0394;
578865979398937;0.0557;-0.0008;0.0149;
578865989528624;0.0354;-0.1212;-0.0096;
578865999630968;-0.1031;-0.1446;-0.0746;
578866009733416;-0.0732;-0.1467;-0.1023;
578866019837895;-0.0296;-0.0551;-0.0756;
578866029940291;-0.0157;0.0055;-0.0671;
578866040042635;0.0205;-0.0072;-0.0373;
578866050117479;0.0099;-0.0807;-0.0490;
578866060219874;0.0258;-0.0296;-0.0277;
578866070322270;0.0290;0.0822;-0.0320;
578866080429666;0.0652;0.0161;-0.0352;
578866090532062;0.0354;-0.0200;0.0224;
578866100634458;0.0067;0.0811;-0.0075;
578866110732583;0.0024;0.1003;-0.0501;
578866120834979;0.0226;-0.0008;-0.0522;
578866130937374;-0.0008;-0.1020;-0.0479;
578866141045812;-0.0104;-0.1084;-0.0288;
578866151148208;0.0194;-0.0828;-0.0810;
578866161250604;0.0706;0.0587;-0.0288;
578866171346541;0.0610;0.0417;-0.0181;
578866181448937;0.0866;-0.0072;-0.0778;
578866191551333;0.0439;0.1173;-0.0426;
578866201666541;0.0525;0.1407;-0.0586;
578866211768937;0.0429;0.0193;-0.0703;
578866221871333;-0.0136;-0.0850;-0.0533;
578866231962999;-0.0232;-0.0573;-0.0842;
578866242065395;0.0035;0.0055;-0.1161;
578866252167791;0.0365;-0.0264;-0.0991;
578866262272062;0.0365;0.0129;-0.1012;
578866272374458;0.0908;0.0257;-0.0905;
578866282456177;0.0812;-0.0040;-0.0905;
578866292558572;0.0823;-0.0178;-0.0767;
578866302660968;0.0716;-0.0562;-0.0916;
578866312781958;0.0344;-0.0423;-0.0959;
578866322884354;0.0471;0.0023;-0.0991;
578866332986749;0.0695;0.0257;-0.0959;
578866343084458;0.0695;0.0289;-0.0905;
578866353186854;0.0791;0.0225;-0.1268;
578866363289249;0.0610;0.0268;-0.0746;
578866373399145;0.1057;-0.0264;-0.0767;
578866383501541;0.0695;-0.0913;-0.0650;
578866393603937;0.0695;-0.0210;-0.0884;
578866403707374;0.0812;0.0619;-0.0330;
578866413809770;0.1238;0.0214;-0.0639;
578866423912166;0.1324;0.0161;-0.0543;
578866434016229;0.0802;0.0353;-0.0501;
578866444118624;0.0844;0.0278;-0.0298;
578866454221020;0.0834;0.0065;-0.0320;
578866464329562;0.0759;-0.0402;-0.0309;
578866474431958;0.0791;-0.0200;-0.0373;
578866484534354;0.1004;-0.0083;-0.0128;
578866494631541;0.0919;0.1290;-0.0000;
578866504733937;0.1249;0.0417;0.0117;
578866514836333;0.1100;-0.3523;0.0501;
578866524926229;0.0908;-0.2277;0.0170;
578866535028624;-0.0083;0.0971;-0.0373;
578866545131020;0.1345;0.0843;-0.0266;
578866555241958;0.1899;-0.1063;0.0224;
578866565344354;0.0876;-0.1531;0.0394;
578866575446749;0.0684;0.0023;0.0362;
578866585554874;0.1526;0.0225;0.0341;
578866595657270;0.1462;-0.0370;0.0224;
578866605759666;0.0812;0.0161;0.0554;
578866615857479;0.0706;0.0321;0.0277;
578866625959874;0.1132;0.3005;0.0288;
578866636062270;0.1345;0.1610;0.0458;
578866646176333;0.0812;-0.0732;0.0447;
578866656278729;-0.0051;-0.0945;0.0650;
578866666381124;-0.0125;-0.0136;0.0320;
578866676478312;0.0557;0.0033;0.0181;
578866686580708;0.1015;-0.0551;0.0383;
578866696683104;0.0514;-0.0509;0.0543;
578866706774354;0.0652;0.0268;0.0309;
578866716876749;0.0780;-0.0115;0.0277;
578866726979145;0.0961;-0.0530;0.0256;
578866737081541;0.0599;0.0289;0.0181;
578866747183937;0.0887;0.0033;-0.0352;
578866757286333;0.0770;-0.0146;-0.0032;
578866767401072;0.0738;0.0193;0.0288;
578866777503468;0.1025;-0.0125;0.0053;
578866787605812;0.1142;0.0555;0.0224;
578866797708468;0.1228;0.0694;0.0309;
578866807810864;0.1079;0.0193;-0.0043;
578866817913260;0.0802;0.0087;0.0256;
578866828001229;0.0461;-0.0541;-0.0245;
578866838103624;0.0620;-0.0157;-0.0053;
578866848206020;0.0823;0.0353;-0.0043;
578866858343520;0.0983;0.0172;0.0234;
578866868445916;0.0652;0.0289;0.0266;
578866878548312;0.1121;0.0704;0.0170;
578866888611072;0.1451;0.0779;0.0170;
578866898713364;0.0887;-0.0072;0.0607;
578866908815812;0.0450;-0.0391;0.0415;
578866918918208;0.0610;0.0278;0.0437;
578866929051541;0.1111;0.0438;0.0309;
578866939153937;0.1079;0.0704;0.0426;
578866949256333;0.0855;0.0342;0.0554;
578866959345135;0.0759;-0.0093;0.0799;
578866969447531;0.0620;0.0055;0.0714;
578866979549927;0.0812;-0.0029;0.0863;
578866989646229;0.0770;-0.0594;0.1023;
578866999748624;0.0386;-0.0988;0.1128;
578867009851020;0.0216;-0.0370;0.1096;
578867019962166;0.0439;0.0715;0.0991;
578867030064562;0.0620;0.0364;0.1001;
578867040166958;0.0365;0.0119;0.0778;
578867050272791;0.0269;0.0108;0.0916;
578867060375187;0.0237;-0.0040;0.1001;
578867070477583;0.0258;0.0087;0.1128;
578867080577374;0.0269;0.0246;0.0980;
578867090679770;0.0557;0.0236;0.1266;
578867100782166;0.0684;0.0140;0.1245;
578867110885708;0.0514;0.0364;0.1362;
578867120988104;0.0386;0.0012;0.1511;
578867131090499;0.0205;-0.0573;0.0969;
578867141204145;0.0290;-0.0072;0.1012;
578867151306541;0.0386;0.0502;0.0735;
578867161408937;0.0429;0.0406;0.1096;
578867171497583;0.0301;-0.0189;0.1245;
578867181599979;0.0258;-0.0083;0.1128;
578867191702374;0.0088;-0.0104;0.0948;
578867201816541;0.0386;-0.0562;0.1128;
578867211918937;0.0035;-0.0317;0.1065;
578867222021333;0.0120;0.0033;0.1075;
578867232119041;0.0109;-0.0338;0.1117;
578867242221437;0.0013;0.0321;0.0618;
578867252323833;0.0056;0.0481;0.0607;
578867262420291;0.0024;0.0182;0.0991;
578867272522687;-0.0093;-0.0168;0.0831;
578867282625083;-0.0274;-0.0296;0.1001;
578867292691489;-0.0349;0.0023;0.0948;
578867302793885;-0.0125;0.0534;0.1117;
578867312896281;-0.0391;0.0800;0.0767;
578867323049302;-0.0274;-0.1659;0.1170;
578867333151697;-0.0722;-0.2341;0.1288;
578867343254093;-0.1605;0.1003;0.0597;
578867353349562;-0.1148;0.2196;0.0426;
578867363451958;0.0205;0.0225;0.0682;
578867373554354;-0.0764;-0.1009;0.0916;
578867383658937;-0.1636;0.0055;0.0607;
578867393761333;-0.1423;0.0225;0.0852;
578867403863729;-0.0626;-0.1158;0.0948;
578867413973729;-0.0945;-0.1286;0.0437;
578867424076124;-0.1073;-0.0093;0.0501;
578867434178520;0.0035;0.2600;0.0607;
578867444274562;0.0237;0.1599;0.0597;
578867454376958;0.0173;-0.1808;0.0426;
578867464479354;-0.0647;-0.1340;0.0394;
578867474578052;-0.0775;-0.0136;0.0533;
578867484680447;0.0130;-0.0242;0.0415;
578867494782843;0.0109;-0.0903;0.0554;
578867504886541;-0.0253;-0.0274;0.0831;
578867514988937;-0.0178;0.0875;0.0352;
578867525091333;0.0162;0.0097;0.0341;
578867535187583;-0.0093;-0.0434;0.0554;
578867545289979;-0.0391;-0.0051;0.0362;
578867555392374;-0.0296;0.0204;0.0309;
578867565512895;-0.0296;0.0364;0.0352;
578867575615291;-0.0338;0.0395;0.0298;
578867585717687;-0.0178;0.0193;0.0383;
578867595782479;-0.0253;0.0108;0.0447;
578867605884822;-0.0296;0.0481;0.0735;
578867615987218;-0.0221;0.0353;0.0597;
578867626120187;-0.0093;-0.0338;0.1033;
578867636222583;-0.0168;-0.0583;0.0405;
578867646324979;-0.0306;-0.0391;0.0043;
578867656427895;-0.0296;0.0001;0.0522;
578867666530291;-0.0189;-0.0083;0.0767;
578867676632687;-0.0242;-0.0860;0.0586;
578867686719562;-0.0285;-0.1318;0.0447;
578867696821958;-0.0349;-0.0083;0.0309;
578867706924354;-0.0349;0.1205;0.0479;
578867717049406;-0.0306;0.0385;0.0320;
578867727151854;-0.0626;-0.0061;0.0415;
578867737254249;-0.0711;0.0342;0.0479;
578867747343052;-0.0413;0.1248;0.0256;
578867757445395;-0.0285;0.1003;0.0213;
578867767547791;-0.0583;-0.0530;0.0469;
578867777654302;-0.0466;-0.0573;0.0554;
578867787756749;-0.0434;0.0417;0.0756;
578867797859093;-0.0178;0.0087;0.0692;
578867807957114;-0.0541;-0.0764;0.0873;
578867818059510;-0.0881;-0.0796;0.0479;
578867828161906;-0.0477;-0.0328;0.0309;
578867838261229;-0.0328;0.0427;0.0245;
578867848363624;-0.0519;-0.0029;0.0298;
578867858466020;-0.0519;-0.0466;0.0724;
578867868573208;-0.0903;-0.0509;0.0863;
578867878675604;-0.0519;-0.0445;0.0660;
578867888777999;-0.0690;-0.0445;0.0767;
578867898890187;-0.0764;-0.0210;0.0831;
578867908992583;-0.0967;-0.0679;0.0852;
578867919094979;-0.0850;-0.1020;0.0778;
578867929205187;-0.1009;0.0108;0.0575;
578867939307583;-0.0711;0.1003;0.0224;
578867949409927;-0.0551;0.0811;0.0256;
578867959503468;-0.0818;0.0364;0.0575;
578867969605864;-0.1063;0.0364;0.0501;
578867979708260;-0.0743;0.0854;0.0394;
578867989814145;-0.0754;0.0395;0.0714;
578867999916541;-0.1116;-0.0328;0.0873;
578868010018937;-0.1605;-0.0157;0.0288;
578868020115552;-0.1242;0.0214;0.0266;
578868030217947;-0.1137;-0.0264;0.0128;
578868040320343;-0.1423;-0.0360;-0.0064;
578868050427374;-0.1402;0.0065;-0.0266;
578868060529770;-0.1338;0.0321;-0.0181;
578868070632166;-0.0913;0.0119;-0.0138;
578868080735916;-0.0999;-0.0115;-0.0149;
578868090838312;-0.0967;0.0385;-0.0213;
578868100940708;-0.0913;0.0321;-0.0288;
578868111035187;-0.0913;-0.0381;-0.0288;
578868121137583;-0.0924;0.0630;-0.0447;
578868131239979;-0.0615;0.1407;-0.1033;
578868141375291;-0.0690;0.0928;-0.0575;
578868151477687;-0.0807;-0.0104;-0.0341;
578868161580083;-0.0871;-0.0573;-0.0405;
578868171659354;-0.0519;-0.0168;-0.0565;
578868181761749;-0.0636;-0.0221;-0.0277;
578868191864145;-0.0605;-0.0338;-0.0288;
578868201968729;-0.0818;-0.0360;-0.0298;
578868212071124;-0.0647;0.0278;-0.0575;
578868222173520;-0.0551;0.0736;-0.0788;
578868232271489;-0.0541;0.0694;-0.0639;
578868242373833;-0.0605;0.0715;-0.0639;
578868252476281;-0.0711;0.0481;-0.0298;
578868262586645;-0.0690;0.0342;-0.0383;
578868272689041;-0.0636;0.0470;-0.0639;
578868282791437;-0.0668;0.1312;-0.0426;
578868292889249;-0.0700;0.2089;-0.0405;
578868302992114;-0.0786;0.0545;-0.0288;
578868313095031;-0.0690;-0.2746;-0.0117;
578868323196437;-0.0690;-0.2170;-0.0479;
578868333299302;-0.0839;0.0204;-0.0863;
578868343402218;-0.0264;-0.0104;-0.0810;
578868353495239;-0.0178;-0.1105;-0.0415;
578868363598156;-0.0487;-0.1244;-0.0383;
578868373701072;-0.0541;-0.0487;-0.0352;
578868383802739;-0.0125;0.0097;-0.0714;
578868393905656;-0.0455;-0.0828;-0.0842;
578868404008572;-0.0413;-0.1371;-0.0873;
578868414128833;0.0120;0.2899;-0.0980;
578868424231697;0.0855;0.3634;-0.0905;
578868434334562;0.1153;0.0683;-0.0565;
578868444429979;0.0013;-0.0051;-0.0352;
578868454532843;-0.0338;0.0438;-0.0714;
578868464635760;0.0248;0.1184;-0.0352;
578868474726385;0.0088;0.0449;-0.0266;
578868484829302;-0.0178;-0.1350;0.0032;
578868494932218;-0.0413;-0.1553;-0.0501;
578868505038833;-0.0157;-0.0881;-0.0490;
578868515141749;0.0216;-0.0722;-0.0842;
578868525244666;0.0194;0.0140;-0.0405;
578868535344458;-0.0008;0.0225;-0.0426;
578868545447322;0.0067;0.0619;-0.0799;
578868555550239;0.0152;0.0822;-0.0820;
578868565659249;-0.0189;0.0395;-0.0320;
578868575762114;-0.0232;0.0385;-0.0511;
578868585864979;-0.0285;0.1237;-0.0842;
578868595958468;0.0152;0.1152;-0.0650;
578868606061333;0.0312;0.0427;-0.0735;
578868616164249;0.0152;0.1067;-0.0597;
578868626270031;0.0109;0.0470;-0.0852;
578868636372947;0.0003;-0.1989;-0.0170;
578868646475864;-0.0072;-0.3023;-0.0117;
578868656582479;0.0088;-0.1340;-0.0224;
578868666685343;0.0067;0.1567;-0.0660;
578868676788208;0.0620;0.0353;-0.0554;
578868686879718;0.0738;-0.1467;-0.0394;
578868696982635;-0.0083;-0.0157;-0.0256;
578868707085499;0.0088;0.1450;-0.0618;
578868717229562;0.0461;0.1514;-0.0618;
578868727332479;-0.0221;0.0683;-0.0330;
578868737435343;-0.0019;0.1067;-0.0320;
578868747486645;-0.0562;0.1503;-0.0415;
578868757589510;-0.0509;0.0129;0.0011;
578868767692427;-0.1402;-0.2011;-0.0043;
578868777816489;-0.0722;-0.1691;0.0032;
578868787919354;0.0194;-0.0019;-0.0362;
578868798022218;0.0024;0.0236;-0.0586;
578868808132322;0.0035;0.1205;-0.0522;
578868818235239;-0.0541;-0.0019;-0.0756;
578868828338052;-0.0306;-0.1755;-0.0650;
578868838457427;0.0013;-0.0850;-0.0479;
578868848560343;0.0184;0.0257;-0.0628;
578868858663208;0.0120;0.1205;-0.0692;
578868868746906;-0.0157;0.0832;-0.0437;
578868878849822;-0.0146;-0.0029;-0.0597;
578868888952687;0.0077;0.0353;-0.0394;
578868899036645;0.0056;-0.0296;-0.0437;
578868909139510;-0.0370;-0.1915;-0.0543;
578868919242374;0.0237;-0.1904;-0.0628;
578868929352687;0.1132;-0.0551;-0.0415;
578868939455552;0.1068;-0.0306;-0.0586;
578868949558416;0.0887;0.0949;-0.0756;
578868959664979;-0.0125;0.0140;-0.0597;
578868969767843;-0.0157;-0.3864;-0.0011;
578868979870708;0.1047;-0.2682;-0.0043;
578868989960343;0.1451;0.1280;-0.0842;
578869000063260;0.0855;0.3176;-0.0948;
578869010166124;0.0130;0.2579;-0.0511;
578869020272895;-0.0168;0.0278;-0.0021;
578869030375760;-0.0221;0.0672;-0.0330;
578869040478677;-0.0029;0.0321;-0.0224;
578869050575656;-0.0732;-0.1957;-0.0011;
578869060678572;-0.0370;-0.3161;-0.0426;
578869070781437;0.0674;-0.0274;-0.0692;
578869080893416;0.0333;0.1972;-0.0458;
578869090996281;-0.0370;-0.0285;-0.0607;
578869101099145;-0.0541;-0.2128;-0.0799;
578869111196385;-0.0200;-0.2714;-0.1023;
578869121299249;0.0141;-0.1414;-0.0873;
578869131402114;0.0141;-0.0551;-0.0948;
578869141518052;0.0269;-0.0296;-0.0895;
578869151620916;0.0226;0.0854;-0.0714;
578869161723833;0.0184;0.0790;-0.1065;
578869171813052;0.0258;0.0214;-0.1342;
578869181915916;0.2889;-0.0168;-0.1363;
578869192018833;0.1632;0.5818;-0.1587;
578869202124458;-0.0828;0.2803;-0.0522;
578869212227322;-0.0583;-0.4418;0.0341;
578869222330239;0.1995;-0.3268;0.0128;
578869232434666;0.2549;-0.0732;-0.0778;
578869242537531;0.1100;-0.0115;-0.0277;
578869252640395;0.0407;-0.1723;0.0565;
578869262745083;0.1473;-0.2138;-0.0096;
578869272847947;0.1739;0.0523;-0.0341;
578869282950864;0.1174;0.1514;-0.0479;
578869293038520;0.0589;0.0534;-0.0245;
578869303141072;0.0290;0.0385;-0.0202;
578869313243677;0.0024;0.1045;0.0085;
578869323361645;-0.0242;0.1120;-0.0405;
578869333464197;-0.0381;0.0278;-0.0096;
578869343566802;-0.0168;-0.0253;0.0192;
578869353654041;0.0439;-0.0381;0.0202;
578869363756593;0.0652;-0.0541;0.0096;
578869373859249;0.0748;-0.0956;0.0053;
578869383988520;0.1196;0.0076;-0.0415;
578869394091072;0.0908;0.0694;-0.0554;
578869404193677;0.0770;-0.0455;0.0043;
578869414277687;0.1142;-0.0732;0.0245;
578869424380239;0.0929;-0.0306;0.0245;
578869434482843;0.0983;0.0310;0.0128;
578869444585395;0.0908;0.0523;0.0373;
578869454687947;0.0770;0.0140;0.0415;
578869464790552;0.0834;0.0822;0.0256;
578869474883312;0.0439;-0.0136;0.0618;
578869484985916;0.0567;-0.1851;0.1202;
578869495088520;0.0897;-0.0700;0.0831;
578869505190135;0.0770;0.1748;0.0692;
578869515292739;0.0375;0.1812;0.0969;
578869525395291;-0.0242;-0.0061;0.1075;
578869535493312;0.0354;-0.0466;0.1085;
578869545595864;-0.0051;0.0502;0.1266;
578869555698468;-0.0615;-0.0253;0.0863;
578869565804041;-0.1190;-0.1702;0.1330;
578869575906593;-0.0636;-0.1531;0.1128;
578869586009197;0.0652;0.2057;0.0884;
578869596123624;-0.0690;0.2888;0.0714;
578869606226177;-0.2265;-0.1531;0.1288;
578869616328781;-0.1148;-0.2373;0.1330;
578869626424666;-0.0051;-0.0434;0.0756;
578869636527218;-0.0626;0.0119;0.0746;
578869646629822;-0.1201;-0.0232;0.1320;
578869656730916;-0.0988;-0.0881;0.0554;
578869666833520;-0.0349;0.0087;0.0458;
578869676936124;-0.0626;0.1067;0.0575;
578869687038572;-0.0605;0.1152;0.0607;
578869697141229;-0.0892;0.0704;0.0437;
578869707243781;-0.1148;0.0001;0.0362;
578869717373156;-0.1020;-0.0210;0.0224;
578869727475760;-0.0722;0.0896;0.0607;
578869737578364;-0.1647;-0.0999;0.0575;
578869747625968;-0.0850;-0.2884;0.0873;
578869757728572;0.0248;-0.1435;0.0170;
578869767831177;0.0248;0.0236;-0.0202;
578869777965395;-0.0264;0.1194;-0.0479;
578869788067947;-0.0402;0.1312;0.0149;
578869798170552;-0.0839;0.0843;-0.0021;
578869808261124;-0.0658;-0.0104;-0.0256;
578869818363677;-0.0668;0.0246;-0.0352;
578869828466281;-0.0679;0.0481;-0.0245;
578869838585812;-0.1009;-0.1606;0.0330;
578869848688364;0.0162;-0.2469;0.0501;
578869858790968;0.2112;0.1993;-0.0330;
578869868885604;0.0876;0.3165;-0.0522;
578869878988156;-0.0690;0.1503;0.0107;
578869889090760;-0.0338;0.0119;0.0266;
578869899222062;-0.0104;0.0236;-0.0053;
578869909324666;-0.0306;0.0609;-0.0021;
578869919427270;-0.0700;0.0182;-0.0053;
578869929506124;-0.0605;-0.1595;-0.0043;
578869939608729;0.0461;-0.0242;0.0479;
578869949711333;0.0439;0.2100;0.0277;
578869959803833;0.0109;0.2696;0.0149;
578869969906437;-0.1063;-0.0562;0.0543;
578869980008989;-0.0850;-0.2959;0.0320;
578869990116802;-0.0072;-0.0892;-0.0170;
578870000219354;-0.0647;0.0289;-0.0224;
578870010322010;-0.1221;-0.1297;0.0352;
578870020422479;-0.0967;-0.2266;-0.0085;
578870030525031;0.0461;0.0097;-0.0330;
578870040627635;-0.0221;0.1173;0.0085;
578870050734979;-0.0423;0.0630;0.0501;
578870060837531;-0.0466;0.0619;-0.0064;
578870070940135;-0.0626;0.0001;-0.0149;
578870081048052;-0.0338;0.0364;0.0107;
578870091150656;-0.0146;0.1684;-0.0096;
578870101253208;-0.0573;0.1173;-0.0000;
578870111348833;-0.0466;-0.0434;0.0330;
578870121451437;-0.0019;-0.1499;0.0660;
578870131554041;0.0599;-0.0445;0.0298;
578870141679145;0.0812;0.0715;0.0234;
578870151781749;-0.0583;-0.0360;0.0692;
578870161884354;-0.0306;-0.0924;0.0415;
578870171966645;-0.0136;-0.0743;0.0288;
578870182069197;-0.0328;0.0470;0.0501;
578870192171802;-0.0924;0.1184;0.0224;
578870202275083;-0.1180;0.0055;-0.0064;
578870212377635;-0.1317;-0.0562;0.0437;
578870222480239;-0.0881;-0.0189;0.0309;
578870232585499;-0.0423;0.0438;0.0075;
578870242688052;-0.0711;0.0481;0.0426;
578870252790656;-0.1073;-0.0796;0.0511;
578870262887062;-0.0285;-0.0881;0.0586;
578870272989614;-0.0551;-0.0487;0.0469;
578870283092218;-0.0626;-0.0786;0.0266;
578870293200083;-0.0594;-0.0413;0.0288;
578870303302687;-0.0605;-0.1308;0.0192;
578870313405343;0.0141;-0.0019;-0.0181;
578870323517999;0.0248;0.3410;-0.0597;
578870333620604;-0.1434;0.1951;0.0149;
578870343723260;-0.1605;-0.0413;0.0511;
578870353809562;-0.0019;0.0236;0.0117;
578870363912166;-0.0232;0.0651;-0.0128;
578870374014822;-0.0754;0.0438;0.0043;
578870384108468;-0.0509;-0.1542;0.0373;
578870394211072;0.0088;-0.1009;0.0107;
578870404313729;0.0897;0.1482;-0.0565;
578870414423729;-0.0200;0.1972;-0.0522;
578870424526333;-0.0775;0.0385;-0.0064;
578870434628989;-0.0796;-0.2330;0.0160;
578870444735187;0.0237;-0.2820;-0.0660;
578870454837843;0.0983;0.0672;-0.0479;
578870464940447;-0.0115;0.1834;-0.0000;
578870475039249;-0.0402;0.0001;0.0437;
578870485141906;-0.0146;-0.0956;-0.0234;
578870495244510;0.0439;0.0044;-0.0277;
578870505349041;0.0045;0.2185;-0.0117;
578870515451645;-0.0881;0.0417;-0.0021;
578870525554302;-0.0434;-0.0445;-0.0234;
578870535656645;0.0024;0.0619;-0.0597;
578870545759249;-0.0370;0.0513;-0.0053;
578870555861854;-0.0605;-0.1702;0.0181;
578870565966437;0.0674;-0.1095;-0.0160;
578870576069041;0.0141;-0.0391;0.0224;
578870586171697;-0.0296;-0.0573;0.0256;
578870596252999;-0.0189;0.0214;0.0160;
578870606355604;-0.0253;0.0587;0.0426;
578870616458260;-0.0434;0.0193;0.0597;
578870626572583;-0.0466;-0.0573;0.0298;
578870636675239;-0.0573;-0.0786;0.0352;
578870646777843;-0.0360;-0.0466;0.0266;
578870656892166;-0.0743;-0.0519;0.0277;
578870666994770;-0.0115;0.0619;0.0107;
578870677097427;-0.0285;0.1908;0.0096;
578870687232114;-0.0871;0.0108;0.0628;
578870697334770;-0.0360;-0.0296;0.0852;
578870707437427;-0.0509;0.0353;0.0096;
578870717522687;-0.0892;0.0076;-0.0043;
578870727625343;-0.1190;-0.0487;0.0021;
578870737727947;-0.0519;0.0449;-0.0149;
578870747830864;-0.0732;0.0864;-0.0117;
578870757933520;-0.0775;0.0193;-0.0298;
578870768036177;-0.0477;0.0587;-0.0160;
578870778100291;-0.0722;0.0502;-0.0373;
578870788202895;-0.0647;-0.0775;-0.0128;
578870798305552;-0.0519;-0.0881;-0.0469;
578870808412791;-0.0072;0.0065;-0.0628;
578870818515395;-0.0242;0.0278;-0.0522;
578870828618052;-0.0242;0.0087;-0.0650;
578870838726229;-0.0104;0.0310;-0.0831;
578870848828885;0.0024;0.0822;-0.1204;
578870858931489;-0.0477;0.0651;-0.1065;
578870869037895;-0.0136;-0.0040;-0.0842;
578870879140499;-0.0125;-0.0413;-0.0597;
578870889243156;0.0194;-0.0210;-0.0980;
578870899392322;0.0620;-0.0029;-0.0810;
578870909494979;0.0493;-0.0125;-0.0597;
578870919597635;0.0674;-0.1158;-0.0309;
578870929656854;0.1398;-0.0466;-0.0565;
578870939759458;0.1249;-0.0402;-0.0383;
578870949862114;0.0482;-0.1169;-0.0021;
578870959963208;0.1068;-0.0626;-0.0479;
578870970065864;0.0663;0.0353;-0.0554;
578870980168468;-0.0104;0.0268;-0.0490;
578870990276749;0.0184;0.0502;-0.0383;
578871000379354;-0.0040;0.0214;-0.0085;
578871010482010;0.0088;-0.0466;0.0277;
578871020578729;-0.0029;-0.0668;0.0245;
578871030681385;0.0194;0.0545;0.0021;
578871040783989;-0.0136;0.1461;-0.0085;
578871050892062;-0.0615;0.0736;0.0075;
578871060994666;-0.0818;0.0108;0.0266;
578871071097322;-0.0807;0.0640;-0.0085;
578871081202583;-0.1306;0.0140;-0.0256;
578871091305187;-0.1551;-0.0434;-0.0192;
578871101407843;-0.1466;-0.0189;-0.0330;
578871111504979;-0.1679;-0.0274;-0.0533;
578871121607635;-0.1402;-0.0168;-0.0586;
578871131710239;-0.0658;0.0715;-0.0778;
578871141836124;-0.0775;0.0204;-0.0394;
578871151938729;-0.0786;-0.0668;-0.0756;
578871162041385;-0.0530;-0.0104;-0.0980;
578871172118624;-0.0551;0.0236;-0.0852;
578871182221229;-0.0349;0.0055;-0.0735;
578871192323885;-0.0083;0.0417;-0.1204;
578871202429874;0.0226;0.0736;-0.0916;
578871212532531;-0.0072;0.0545;-0.0565;
578871222635135;-0.0136;0.0140;-0.0703;
578871232739041;0.0077;0.0129;-0.0746;
578871242841645;0.0130;0.0087;-0.0650;
578871252944302;0.0248;-0.0487;-0.0373;
578871263037479;0.0642;-0.0594;-0.0213;
578871273140135;0.0919;0.0129;-0.0320;
578871283242739;0.0407;0.0140;-0.0394;
578871293351333;0.0589;-0.0455;-0.0320;
578871303453885;0.0365;-0.0519;0.0138;
578871313556437;0.0226;-0.0136;0.0053;
578871323672218;0.0205;0.0225;-0.0352;
578871333774770;0.0109;-0.0115;-0.0192;
578871343877322;0.0003;-0.0636;0.0011;
578871353965916;0.0301;-0.0061;0.0064;
578871364068468;0.0099;0.0204;-0.0320;
578871374171020;0.0301;0.0033;-0.0309;
578871384270812;0.0120;-0.0051;-0.0192;
578871394373364;0.0173;0.0023;-0.0245;
578871404475916;-0.0136;-0.0338;-0.0192;
578871414589874;0.0099;-0.0285;-0.0607;
578871424692427;0.0099;0.0076;-0.0575;
578871434794979;0.0258;0.0225;-0.0671;
578871444899770;0.0226;-0.0381;-0.0181;
578871455002322;0.0450;-0.0583;-0.0320;
578871465104874;0.0578;0.0332;-0.0426;
578871475200343;0.0535;0.0939;-0.0724;
578871485302947;0.0557;0.0374;-0.0245;
578871495405499;0.0578;-0.0093;-0.0181;
578871505510552;0.0823;-0.0008;-0.0533;
578871515613104;0.0919;0.0140;-0.0437;
578871525715656;0.1004;0.0257;-0.0213;
578871535815968;0.1036;-0.0210;-0.0181;
578871545918520;0.1505;-0.0115;-0.0085;
578871556021072;0.1483;0.0395;-0.0011;
578871566112166;0.1345;0.0044;0.0096;
578871576214718;0.1217;0.0502;0.0128;
578871586317270;0.0983;0.1099;0.0064;
578871596451802;0.0493;0.0555;0.0181;
578871606554354;0.0450;-0.0935;0.0682;
578871616656958;0.0461;-0.0913;0.0703;
578871626735499;0.0333;0.0726;0.0341;
578871636838052;0.0152;0.1407;0.0277;
578871646940604;0.0226;0.0854;0.0288;
578871657054249;0.0301;0.0395;0.0437;
578871667156854;0.0194;0.0236;0.0948;
578871677259406;0.0056;-0.0903;0.1075;
578871687359041;-0.0008;-0.1190;0.1096;
578871697461593;-0.0583;-0.1531;0.0852;
578871707564145;-0.0583;-0.1840;0.0948;
578871717641124;-0.0636;-0.1371;0.1012;
578871727743677;-0.0328;-0.0434;0.0628;
578871737846229;0.0099;0.1961;0.0511;
578871747967270;0.0130;0.2877;0.0362;
578871758069822;-0.0423;0.1461;0.0394;
578871768172374;-0.1647;-0.2138;0.0714;
578871778266437;-0.1541;-0.3395;0.0810;
578871788368989;-0.1041;-0.0104;-0.0053;
578871798471541;-0.1264;0.2355;-0.0575;
578871808580083;-0.0061;0.2387;-0.0085;
578871818682635;0.0141;0.1578;0.0266;
578871828785187;-0.0200;0.0662;0.0213;
578871838906541;0.0013;0.0001;0.0170;
578871849009093;-0.0136;-0.0636;0.0469;
578871859111645;-0.0360;-0.1116;0.0320;
578871869229406;-0.0668;-0.2021;0.0266;
578871879332010;-0.0988;-0.2607;-0.0394;
578871889434562;-0.0242;-0.0296;-0.0426;
578871899514458;0.0237;0.4081;-0.0501;
578871909617010;0.0866;0.3218;-0.0181;
578871919719562;0.0237;-0.0626;-0.0032;
578871929818416;-0.0658;-0.0498;-0.0330;
578871939920968;-0.0945;0.1035;-0.0660;
578871950023520;-0.0391;0.0033;-0.0533;
578871960134666;-0.0072;-0.1148;-0.0138;
578871970237218;-0.0200;-0.0296;-0.0075;
578871980339770;0.0035;0.0736;-0.0224;
578871990437583;0.0216;-0.0083;-0.0234;
578872000540135;0.0642;-0.0466;-0.0011;
578872010642687;0.0130;-0.0061;-0.0075;
578872020747270;0.0056;0.0257;-0.0043;
578872030849822;0.0152;-0.0019;0.0170;
578872040952374;-0.0115;-0.0754;0.0277;
578872051055656;-0.0328;-0.0423;-0.0064;
578872061158208;-0.0551;-0.0775;-0.0096;
578872071260760;0.0013;0.0097;0.0075;
578872081364666;-0.0104;0.0630;0.0256;
578872091467218;-0.0189;0.0523;0.0362;
578872101569770;-0.0328;0.0172;0.0117;
578872111667791;-0.0285;-0.0029;0.0170;
578872121770343;-0.0189;0.0321;0.0192;
578872131872895;0.0056;0.0726;0.0181;
578872141962687;-0.0264;-0.0221;0.0181;
578872152065239;-0.0328;-0.0924;0.0107;
578872162167791;-0.0232;-0.0061;0.0053;
578872172283937;0.0067;0.0268;0.0288;
578872182386489;0.0194;-0.0296;0.0096;
578872192489041;-0.0008;-0.0551;0.0032;
578872202602895;-0.0264;-0.0583;-0.0000;
578872212705447;-0.0019;0.0321;-0.0000;
578872222807999;-0.0232;0.0417;0.0075;
578872232901749;-0.0040;0.0598;-0.0192;
578872243004302;-0.0104;0.0843;-0.0352;
578872253106854;-0.0125;0.0907;-0.0554;
578872263210708;-0.0200;0.0651;-0.0149;
578872273313260;-0.0445;0.0119;-0.0202;
578872283415812;-0.0125;-0.0264;-0.0405;
578872293518208;-0.0317;-0.0722;-0.0415;
578872303620864;-0.0317;-0.0423;-0.0554;
578872313723520;-0.0061;0.0108;-0.0352;
578872323822999;-0.0072;-0.0125;-0.0352;
578872333925656;0.0120;-0.0019;-0.0565;
578872344028312;-0.0168;0.0278;-0.0490;
578872354118729;0.0184;-0.0253;-0.1012;
578872364221385;-0.0125;-0.0509;-0.0756;
578872374324093;-0.0200;-0.0264;-0.0937;
578872384422791;0.0130;-0.0509;-0.0703;
578872394525447;0.0237;-0.0647;-0.0586;
578872404628156;0.0610;0.0236;-0.0873;
578872414740812;0.0503;0.0449;-0.0586;
578872424843468;0.0684;-0.0317;-0.0660;
578872434946177;0.0652;-0.0913;-0.0703;
578872445059666;0.0439;-0.0051;-0.0671;
578872455162322;0.0663;0.0385;-0.0735;
578872465264979;0.0876;-0.0157;-0.0671;
578872475374041;0.1345;0.0619;-0.0341;
578872485476697;0.0951;0.0161;-0.0085;
578872495579354;0.1100;-0.0338;-0.0075;
578872505665812;0.0770;-0.0434;-0.0107;
578872515768468;0.0503;-0.0541;0.0085;
578872525871177;0.0620;0.0161;0.0149;
578872535965708;0.0620;-0.0264;-0.0011;
578872546068364;0.0652;-0.0732;-0.0043;
578872556171020;0.0333;-0.0125;0.0554;
578872566276333;0.0120;-0.0455;0.0724;
578872576378989;0.0024;-0.0040;0.0352;
578872586481645;0.0045;0.0811;0.0053;
578872596582479;0.0152;0.0353;0.0415;
578872606685135;0.0088;0.0459;0.0714;
578872616787791;-0.0136;0.0268;0.0256;
578872626882999;-0.0264;-0.0274;0.0043;
578872636985656;-0.0157;0.0289;0.0245;
578872647088312;-0.0242;0.0278;0.0341;
578872657242114;0.0194;-0.0668;0.0170;
578872667344718;0.0024;-0.0786;0.0192;
578872677447374;-0.0104;-0.0019;0.0021;
578872687492374;0.0397;0.1035;0.0288;
578872697595083;0.0067;0.0609;-0.0085;
578872707697739;0.0152;-0.0487;-0.0469;
578872717827479;-0.0189;-0.1148;-0.0383;
578872727930135;-0.0242;-0.2735;-0.0309;
578872738032791;0.0237;-0.1457;-0.0575;
578872748141541;0.0471;0.1386;-0.0884;
578872758244197;0.0748;0.0939;-0.0607;
578872768346854;0.0578;-0.0530;-0.0586;
578872778452791;0.0567;0.0001;-0.0394;
578872788555447;0.0450;-0.0338;-0.0426;
578872798658104;0.0557;-0.2106;-0.0181;
578872808738104;0.0567;-0.1553;-0.0234;
578872818840760;0.0631;0.1013;-0.0959;
578872828943416;0.0961;0.3304;-0.1087;
578872839044458;0.0802;0.1876;-0.0447;
578872849147114;0.0876;0.1077;0.0170;
578872859249822;0.0429;0.0992;0.0053;
578872869348208;0.0407;-0.1297;-0.0298;
578872879450864;0.0407;-0.1510;0.0138;
578872889553520;0.0184;-0.0967;0.0330;
578872899672635;0.0386;-0.0445;0.0234;
578872909775291;0.0929;0.1216;0.0043;
578872919877947;0.1036;0.2174;0.0660;
578872929970708;0.0770;0.2068;0.0437;
578872940073364;-0.0061;-0.0509;0.0234;
578872950176020;-0.0871;-0.3832;0.0522;
578872960283937;-0.0477;-0.1798;0.0213;
578872970386593;-0.0338;0.1599;0.0032;
578872980489249;0.0035;0.1482;-0.0202;
578872990582895;0.0514;0.0694;0.0064;
578873000685552;0.0205;0.0491;0.0181;
578873010788208;0.0141;0.0140;0.0565;
578873020905291;0.0216;-0.0626;0.0639;
578873031007947;-0.0019;-0.1286;0.0682;
578873041110604;0.0013;0.0033;0.0533;
578873051209302;-0.0093;0.0129;0.0266;
578873061311958;0.0067;-0.1819;0.0501;
578873071414666;0.0599;0.0907;0.0639;
578873081516229;0.0333;0.2079;0.0586;
578873091618885;0.0429;-0.0903;0.0586;
578873101721541;0.0013;-0.1371;0.0628;
578873111818312;-0.0178;0.0055;0.0490;
578873121920968;0.0375;0.1301;0.0778;
578873132023677;0.0258;0.1045;0.0756;
578873142116958;-0.0306;-0.0413;0.0554;
578873152219614;-0.0487;-0.0168;0.0586;
578873162322270;-0.0775;-0.0040;0.0607;
578873172427479;-0.0210;-0.0296;0.0415;
578873182530135;-0.0328;0.1003;0.0479;
578873192632791;-0.0189;0.0694;0.0692;
578873202739041;-0.0328;-0.1489;0.0650;
578873212841697;-0.0583;-0.0956;0.0362;
578873222944354;-0.1264;0.0108;0.0565;
578873233060083;-0.0711;-0.0967;0.0170;
578873243162739;-0.0594;-0.2032;0.0160;
578873253265447;-0.1338;-0.1648;-0.0043;
578873263360916;-0.0658;0.0470;-0.0447;
578873273463572;0.0067;0.1716;-0.0224;
578873283566229;-0.0061;0.0790;-0.0362;
578873293658416;-0.0360;0.0491;-0.0820;
578873303760864;-0.0626;-0.0083;-0.0820;
578873313863364;-0.0360;0.0150;-0.0714;
578873323975499;-0.0093;0.0587;-0.0522;
578873334077947;0.0269;0.0300;-0.0628;
578873344180447;0.0322;-0.0967;-0.0362;
578873354284666;0.0844;-0.0402;-0.0405;
578873364387114;0.1292;0.0768;-0.0298;
578873374489614;0.1377;0.0236;-0.0575;
578873384589562;0.1111;-0.0455;-0.0181;
578873394692010;0.0823;-0.0296;-0.0415;
578873404794510;0.0759;0.0033;-0.0660;
578873414895916;0.0557;-0.0019;-0.0490;
578873424998364;0.0535;-0.0285;-0.0213;
578873435100864;0.0503;-0.0647;-0.0128;
578873445210708;0.0546;-0.0285;-0.0479;
578873455313156;0.0344;-0.0370;-0.0202;
578873465415656;0.0589;0.0129;0.0181;
578873475515447;0.0493;0.1045;0.0032;
578873485617843;0.0130;0.0246;-0.0011;
578873495720343;-0.0146;-0.0253;0.0479;
578873505816437;-0.0178;-0.0423;0.0075;
578873515918937;0.0024;0.0555;-0.0266;
578873526021385;0.0024;0.0300;-0.0117;
578873536120291;-0.0115;-0.0232;0.0149;
578873546222739;-0.0370;-0.0434;0.0234;
578873556325239;0.0056;0.0023;0.0149;
578873566429249;0.0205;0.0438;-0.0043;
578873576531697;0.0216;0.0204;0.0160;
578873586634197;0.0077;-0.0061;0.0660;
578873596755708;-0.0125;-0.0104;0.0682;
578873606858156;-0.0125;-0.0274;0.0213;
578873616960656;-0.0104;-0.0051;0.0650;
578873627056333;-0.0466;-0.0178;0.0341;
578873637158833;-0.0413;-0.0189;-0.0128;
578873647261281;-0.0477;0.1109;-0.0394;
578873657362010;-0.0818;0.0236;0.0053;
578873667464458;-0.0860;-0.1872;0.0618;
578873677566906;-0.1242;-0.1318;0.0085;
578873687679354;-0.0636;0.0353;-0.0234;
578873697781749;-0.0402;0.0055;-0.0032;
578873707884249;-0.0466;-0.0690;-0.0128;
578873717962687;-0.0615;-0.0498;-0.0298;
578873728065135;-0.0296;0.0300;-0.0511;
578873738167583;-0.0157;0.0161;-0.0660;
578873748267895;-0.0221;-0.0423;-0.0565;
578873758370343;0.0035;0.0204;-0.0820;
578873768472791;0.0077;0.0630;-0.0703;
578873778593208;0.0088;-0.1435;-0.1236;
578873788695656;0.0493;0.0246;-0.1087;
578873798798156;0.0620;0.1439;-0.1161;
578873808894041;0.0770;-0.0093;-0.1118;
578873818996489;0.0738;-0.1499;-0.1023;
578873829098989;0.1260;-0.0828;-0.0852;
578873839209145;0.1547;0.0885;-0.1278;
578873849311593;0.1345;0.0726;-0.1353;
578873859414093;0.1164;-0.0423;-0.1087;
578873869500604;0.1366;0.0406;-0.1204;
578873879603052;0.1324;0.0758;-0.1406;
578873889705552;0.1356;0.0033;-0.1033;
578873899831385;0.0972;-0.0253;-0.0628;
578873909933833;0.0897;-0.0551;-0.0895;
578873920036333;0.0844;-0.1137;-0.0895;
578873930139458;0.0929;-0.1009;-0.0234;
578873940241906;0.1111;-0.0807;-0.0373;
578873950344406;0.1111;-0.0008;-0.0341;
578873960446541;0.0706;0.0087;-0.0618;
578873970548989;0.0493;-0.1052;-0.0735;
578873980651437;0.0269;-0.0913;-0.0288;
578873990735395;0.0471;0.0300;-0.0735;
578874000837843;0.0503;0.0555;-0.0671;
578874010940343;0.0418;0.0204;-0.0394;
578874021065395;0.0226;-0.0189;-0.0756;
578874031167843;0.0482;-0.0338;-0.0639;
578874041270343;0.0706;0.0161;-0.0288;
578874051363468;0.0759;0.0864;-0.0160;
578874061465968;0.0993;0.1045;-0.0149;
578874071568416;0.0684;0.0662;-0.0096;
578874081688416;0.0738;0.0971;-0.0320;
578874091790864;0.0642;0.1312;-0.0170;
578874101893364;0.0493;0.0598;-0.0202;
578874111971229;0.0354;-0.0423;-0.0000;
578874122073677;0.0194;-0.1201;-0.0213;
578874132176177;0.0493;-0.0764;-0.0533;
578874142281645;0.0567;-0.0115;-0.0277;
578874152384093;0.0652;-0.0083;-0.0458;
578874162486593;0.0684;-0.0146;-0.0277;
578874172593729;0.0823;-0.0115;-0.0075;
578874182696229;0.1036;0.0108;-0.0394;
578874192798677;0.0791;0.0012;-0.0437;
578874202912479;0.0599;-0.0722;-0.0703;
578874213014927;0.0482;-0.1073;-0.0692;
578874223117427;0.0759;-0.0178;-0.0810;
578874233223624;0.0940;0.0981;-0.1182;
578874243326072;0.1324;0.0566;-0.1182;
578874253428572;0.1068;0.0545;-0.0767;
578874263520031;0.1089;-0.0083;-0.0831;
578874273622427;0.1270;-0.0519;-0.0884;
578874283724927;0.1398;0.0033;-0.0799;
578874293830291;0.1718;0.0193;-0.0852;
578874303932999;0.2027;-0.0051;-0.0543;
578874314035656;0.1846;-0.0200;-0.0511;
578874324140291;0.2218;0.0129;-0.0799;
578874334242999;0.2229;0.0651;-0.0586;
578874344345656;0.1877;0.0246;-0.0234;
578874354439458;0.1686;0.0076;-0.0458;
578874364542114;0.1632;0.0736;-0.0810;
578874374644874;0.1441;0.1099;-0.0266;
578874384734249;0.1313;0.0332;-0.0021;
578874394836958;0.1324;-0.0125;-0.0085;
578874404939614;0.1398;-0.0274;0.0117;
578874415043312;0.1292;-0.0924;0.0277;
578874425146020;0.1206;-0.1915;0.0266;
578874435248729;0.1547;-0.1574;0.0501;
578874445353833;0.1494;0.0811;0.0043;
578874455456541;0.1803;0.2345;-0.0107;
578874465559197;0.1366;0.1503;0.0170;
578874475644302;0.1206;0.0822;0.0096;
578874485747010;0.1004;0.0960;0.0096;
578874495849718;0.0706;-0.0296;0.0256;
578874505966020;0.0706;-0.0871;0.0245;
578874516068729;0.0972;-0.0700;0.0170;
578874526171437;0.1249;-0.0242;0.0149;
578874536274666;0.1664;0.0364;0.0415;
578874546377374;0.1654;0.0129;0.0969;
578874556480031;0.2346;0.1738;0.0628;
578874566587999;0.1931;0.2068;0.0607;
578874576690708;0.0503;-0.1776;0.1128;
578874586793416;0.0780;-0.1766;0.0597;
578874596882322;0.0876;-0.0040;0.0490;
578874606985031;0.0887;-0.0296;0.0447;
578874617087739;0.1111;-0.0594;0.0842;
578874627199562;0.1153;-0.0072;0.0671;
578874637302270;0.1292;0.0289;0.0554;
578874647404979;0.1494;0.0023;0.1224;
578874657508833;0.1164;0.0001;0.1245;
578874667611541;0.1537;0.0204;0.1224;
578874677714249;0.0876;-0.0221;0.1341;
578874687832531;0.1089;-0.0466;0.1160;
578874697935239;0.0887;-0.0306;0.1394;
578874708037947;0.0972;-0.0115;0.1055;
578874718144302;0.0972;0.0012;0.0927;
578874728247010;0.1068;0.0236;0.1138;
578874738349718;0.0929;0.0055;0.1383;
578874748420916;0.0908;-0.0519;0.1575;
578874758523624;0.0855;-0.0402;0.1373;
578874768626333;0.0791;-0.0349;0.1437;
578874778745395;0.0642;-0.0381;0.1810;
578874788848104;0.0887;-0.0434;0.1820;
578874798950760;0.0844;0.0055;0.1501;
578874809058624;0.0919;0.1280;0.1405;
578874819161333;0.0589;0.1120;0.1565;
578874829263989;0.0493;0.0119;0.1692;
578874839377270;0.0141;-0.0189;0.1501;
578874849479979;0.0194;-0.0157;0.1033;
578874859582635;-0.0168;-0.0626;0.1320;
578874869678208;-0.0498;-0.0871;0.1533;
578874879780916;-0.0434;-0.0828;0.0959;
578874889883624;-0.0221;-0.0636;0.0948;
578874899982374;-0.0029;-0.0072;0.1023;
578874910085083;0.0407;0.0907;0.1256;
578874920187739;0.0503;0.1152;0.1023;
578874930284249;0.0301;0.0715;0.0511;
578874940386958;-0.0232;0.0310;0.0778;
578874950489614;-0.0754;-0.0647;0.0916;
578874960596854;-0.0562;-0.0562;0.0224;
578874970699562;-0.0413;-0.0093;0.0043;
578874980802218;-0.0242;0.0012;0.0213;
578874990899562;0.0237;0.0119;0.0479;
578875001002270;0.0418;0.0033;0.0224;
578875011104927;0.0716;0.0523;0.0373;
578875021212635;0.0471;0.0854;0.0426;
578875031315343;0.0514;-0.0232;0.0234;
578875041417999;0.0386;-0.0530;0.0224;
578875051516333;0.0013;-0.0274;0.0341;
578875061619041;0.0248;-0.0051;0.0202;
578875071721697;0.0365;-0.0530;0.0075;
578875081821645;-0.0019;-0.0423;-0.0447;
578875091924354;0.0365;0.0640;-0.0373;
578875102027010;0.0770;0.0651;-0.0096;
578875112133312;0.0780;-0.0051;-0.0128;
578875122236020;0.0312;0.0481;0.0043;
578875132338729;0.0738;0.0417;-0.0266;
578875142452999;0.1196;0.0332;0.0128;
578875152555708;0.0823;0.0214;0.0383;
578875162658364;0.0823;-0.0413;0.0469;
578875172744770;0.0535;-0.0029;0.0224;
578875182847479;0.0706;0.0182;0.0117;
578875192950135;0.0599;-0.0434;0.0458;
578875203061385;0.0354;-0.0519;0.0352;
578875213164093;0.0503;-0.0221;0.0352;
578875223266749;0.0663;0.0161;0.0458;
578875233368208;0.0525;0.0065;0.0181;
578875243470916;0.0184;-0.0541;0.0383;
578875253573572;0.0312;0.0108;0.0746;
578875263667583;0.0514;0.0300;0.0341;
578875273770291;0.0461;-0.0413;0.0373;
578875283872947;0.0418;-0.0391;0.0511;
578875293980708;0.0578;-0.0317;0.0884;
578875304083260;0.0471;0.0395;0.0447;
578875314185812;0.0663;0.0704;0.0224;
578875324291749;0.0354;-0.0040;0.0405;
578875334394302;0.0301;-0.0136;0.0288;
578875344496854;0.0589;0.0609;-0.0266;
578875354586541;0.0748;0.1013;-0.0128;
578875364689093;0.0397;-0.0253;0.0096;
578875374791645;0.0429;-0.0775;0.0309;
578875384924562;0.0908;0.0427;-0.0032;
578875395027114;0.1196;-0.0072;0.0277;
578875405129666;0.0951;-0.0839;0.0330;
578875415215135;0.1217;0.0087;0.0575;
578875425317687;0.1505;0.0012;0.0181;
578875435420291;0.1409;-0.0253;0.0405;
578875445512999;0.0748;-0.0860;0.0383;
578875455615552;0.0578;-0.0498;0.0458;
578875465718104;0.0961;0.0491;0.0234;
578875475816958;0.0929;0.0087;0.0202;
578875485919510;0.0834;-0.0072;0.0298;
578875496022062;0.0738;-0.0168;0.0415;
578875506125083;0.0674;-0.0200;0.0735;
578875516227635;0.0727;0.0459;0.0937;
578875526330187;0.0993;0.0108;0.1044;
578875536433885;0.0812;-0.0125;0.1085;
578875546536437;0.1025;0.0896;0.0991;
578875556639041;0.0770;-0.0019;0.1341;
578875566737791;0.0344;-0.0668;0.1117;
578875576840343;0.0418;0.1035;0.1320;
578875586942895;0.0205;0.0779;0.1405;
578875597064927;0.0375;-0.0125;0.1055;
578875607167531;-0.0594;-0.0317;0.0895;
578875617270083;-0.0924;-0.0306;0.1160;
578875627360187;-0.0519;0.0385;0.1023;
578875637462739;-0.0338;-0.0019;0.1055;
578875647565291;-0.0328;0.0076;0.0820;
578875657638781;-0.0423;0.1152;0.0937;
578875667741333;0.0354;0.0939;0.0714;
578875677843885;0.0375;-0.0072;0.0799;
578875687966645;-0.0125;-0.0221;0.0767;
578875698069197;-0.0072;0.0193;0.0607;
578875708171749;0.0162;0.0140;0.0479;
578875718287895;0.0088;-0.0306;0.0628;
578875728390447;-0.0200;-0.0722;0.0277;
578875738492999;-0.0178;-0.0328;0.0415;
578875748602270;-0.0093;0.0193;0.0426;
578875758704822;0.0184;0.0044;0.0373;
578875768807374;0.0162;-0.0051;0.0224;
578875778892583;-0.0146;-0.0700;0.0330;
578875788995135;0.0067;-0.0242;0.0383;
578875799097687;0.0067;-0.0157;0.0426;
578875809213468;0.0216;-0.0881;0.0234;
578875819316020;0.0130;-0.0668;0.0234;
578875829418572;-0.0008;-0.0019;-0.0170;
578875839516645;0.0088;-0.0242;-0.0000;
578875849619197;-0.0019;0.0374;0.0320;
578875859721749;-0.0146;0.0928;-0.0000;
578875869829562;-0.0157;0.0587;0.0053;
578875879932114;-0.0370;-0.0051;-0.0085;
578875890034666;-0.0328;0.0150;0.0011;
578875900138208;-0.0391;0.0609;0.0373;
578875910240760;-0.0530;0.0119;0.0256;
578875920343312;-0.0509;-0.0391;0.0202;
578875930444770;-0.0818;-0.0115;0.0181;
578875940547322;-0.0700;0.0214;0.0138;
578875950649874;-0.0605;-0.0317;-0.0043;
578875960751385;-0.0551;-0.0828;-0.0064;
578875970853937;-0.0700;-0.0967;0.0117;
578875980956489;-0.0519;-0.0477;0.0021;
578875991060395;-0.0541;-0.0146;-0.0266;
578876001162947;-0.0807;-0.1084;-0.0309;
578876011265499;-0.0573;-0.1904;-0.0096;
578876021370968;-0.0594;-0.1883;-0.0107;
578876031473520;-0.0360;-0.1691;-0.0277;
578876041576072;-0.0157;0.1429;-0.0415;
578876051678885;0.0120;0.3517;-0.0575;
578876061781437;-0.0232;0.2483;-0.0170;
578876071883989;-0.0061;0.1482;-0.0107;
578876081982999;0.0013;0.1418;-0.0352;
578876092085552;-0.0413;-0.0168;-0.0330;
578876102188104;-0.0391;-0.0530;0.0138;
578876112291958;0.0024;0.0257;0.0298;
578876122394510;-0.0178;-0.0562;0.0309;
578876132497062;-0.0146;-0.1478;0.0160;
578876142617687;0.0184;-0.1020;-0.0043;
578876152720239;0.0866;0.0491;0.0320;
578876162822791;0.0557;0.1855;0.0714;
578876172909562;0.0344;0.1567;0.0831;
578876183012114;-0.0093;0.1365;0.0682;
578876193114666;-0.1201;-0.1872;0.0522;
578876203219145;-0.1052;-0.3470;0.0373;
578876213321697;0.0184;-0.1382;0.0160;
578876223424249;-0.0956;-0.1063;0.0224;
578876233511854;-0.1073;-0.0754;0.0117;
578876243614406;-0.0093;0.0800;0.0149;
578876253716958;-0.0136;0.1471;-0.0043;
578876263826749;-0.0061;0.0832;-0.0075;
578876273929302;-0.0636;0.0182;0.0245;
578876284031854;-0.0615;0.0640;0.0383;
578876294129874;-0.0370;0.1056;0.0277;
578876304232427;-0.0370;0.0523;0.0533;
578876314334979;-0.0264;-0.0093;0.0660;
578876324445395;-0.0040;0.0310;0.0383;
578876334547947;-0.0338;0.0087;0.0469;
578876344650499;-0.0200;-0.0253;0.0628;
578876354744718;-0.0019;-0.0413;0.0639;
578876364847270;-0.0296;-0.0605;0.0671;
578876374949770;-0.0594;-0.0732;0.0298;
578876385044666;-0.0668;-0.0605;0.0426;
578876395147218;-0.1105;-0.0200;0.0756;
578876405249770;-0.0913;-0.0104;0.0320;
578876415370187;-0.0775;0.0278;-0.0000;
578876425472739;-0.0924;0.0406;0.0075;
578876435575291;-0.0999;-0.0093;0.0298;
578876445685083;-0.0850;-0.0285;0.0383;
578876455787635;-0.0743;-0.0146;0.0096;
578876465890187;-0.0935;-0.0285;0.0128;
578876475981541;-0.0881;-0.0690;0.0181;
578876486084041;-0.0679;-0.0935;0.0160;
578876496186593;-0.0573;-0.0828;0.0128;
578876506283208;-0.0466;-0.0711;0.0011;
578876516385760;-0.0530;-0.0722;-0.0170;
578876526488312;-0.0253;-0.0168;0.0149;
578876536586645;-0.0636;-0.0093;0.0330;
578876546689197;-0.0658;-0.0274;-0.0202;
578876556791749;-0.0892;-0.0796;-0.0309;
578876566893885;-0.0881;-0.1435;-0.0149;
578876576996437;-0.0562;-0.1052;-0.0213;
578876587098989;-0.0189;-0.0093;-0.0373;
578876597272322;-0.0455;0.0406;-0.0075;
578876607374874;-0.0530;-0.0370;0.0021;
578876617477427;-0.0125;-0.0562;0.0138;
578876627518833;-0.0168;-0.0264;0.0096;
578876637621437;-0.0200;-0.0477;-0.0138;
578876647723989;0.0152;-0.0200;0.0117;
578876657835760;0.0184;0.0417;-0.0320;
578876667938312;-0.0029;0.0108;0.0064;
578876678040864;-0.0019;0.0225;0.0192;
578876688150447;0.0056;0.0523;0.0053;
578876698252999;-0.0157;0.0598;-0.0117;
578876708355552;-0.0445;0.0108;-0.0128;
578876718460291;-0.0253;-0.0296;-0.0096;
578876728562843;0.0141;0.0523;0.0266;
578876738665395;-0.0189;0.0065;0.0277;
578876748753624;0.0056;-0.0221;-0.0181;
578876758856177;-0.0296;0.0555;-0.0362;
578876768958729;-0.0136;0.1162;-0.0288;
578876779058520;-0.0232;0.0619;0.0021;
578876789161072;-0.0104;-0.0061;-0.0021;
578876799263624;0.0237;0.0598;-0.0064;
578876809364562;0.0216;0.1077;-0.0458;
578876819467114;-0.0178;0.0087;-0.0543;
578876829569666;-0.0136;0.0055;-0.0458;
578876839677791;-0.0093;0.1067;-0.0639;
578876849780343;-0.0264;-0.0146;-0.0842;
578876859882895;-0.0786;-0.1595;-0.0671;
578876869972635;-0.0434;-0.0615;-0.0746;
578876880075187;-0.0509;0.0278;-0.0969;
578876890177687;-0.0221;0.0513;-0.0905;
578876900287062;0.0045;0.0885;-0.1044;
578876910389614;0.0301;0.0885;-0.0991;
578876920492166;0.0109;-0.0200;-0.0597;
578876930607374;0.0024;-0.1169;-0.0565;
578876940709927;0.0280;-0.0391;-0.0511;
578876950812479;0.0312;0.0481;-0.0650;
578876960908729;0.0344;-0.0029;-0.0501;
578876971011281;0.0525;0.0566;-0.0565;
578876981113833;0.0333;0.0726;-0.0181;
578876991210499;-0.0093;-0.0381;-0.0096;
578877001313052;-0.0061;-0.0455;-0.0085;
578877011415604;-0.0360;-0.0285;-0.0011;
578877021510187;-0.0413;-0.0562;0.0192;
578877031612739;-0.0274;-0.0051;0.0160;
578877041715291;-0.0285;0.0640;0.0202;
578877051823833;-0.0370;0.0001;0.0415;
578877061926385;-0.0434;-0.0519;0.0373;
578877072028937;-0.0711;-0.0391;0.0511;
578877082140083;-0.0530;-0.0328;0.0735;
578877092242635;-0.0551;-0.0008;0.0778;
578877102345187;-0.0402;-0.0040;0.0298;
578877112441749;-0.0455;-0.0370;0.0660;
578877122544302;-0.0402;0.0076;0.0714;
578877132646854;-0.0338;0.0214;0.0543;
578877142746124;-0.0775;-0.0381;0.0394;
578877152848677;-0.0764;-0.1031;0.0607;
578877162951229;-0.0700;-0.0732;0.0873;
578877173055916;-0.0594;0.0577;0.0447;
578877183158468;-0.0796;0.0694;-0.0043;
578877193261020;-0.1063;0.0150;-0.0075;
578877203372218;-0.1158;0.0364;0.0213;
578877213474770;-0.1095;0.0779;0.0224;
578877223577322;-0.1148;0.0587;0.0075;
578877233679249;-0.1381;-0.0125;-0.0064;
578877243781802;-0.1190;-0.0349;-0.0107;
578877253884354;-0.1031;-0.0242;0.0043;
578877263988624;-0.1009;0.0044;-0.0053;
578877274091177;-0.0945;0.0129;-0.0170;
578877284193729;-0.1073;0.0300;-0.0511;
578877294257583;-0.0945;0.0278;-0.0799;
578877304360135;-0.0913;0.0300;-0.0778;
578877314462687;-0.0786;0.0449;-0.0575;
578877324606854;-0.0605;0.0651;-0.0639;
578877334709406;-0.0466;0.0459;-0.0905;
578877344811958;-0.0093;0.0683;-0.0948;
578877354908052;-0.0115;0.1045;-0.0735;
578877365010604;-0.0253;-0.0839;-0.0479;
578877375113156;-0.0136;-0.1616;-0.0607;
578877385220708;0.0162;-0.0477;-0.0607;
578877395323260;0.0141;-0.0285;-0.0575;
578877405425812;0.0152;-0.1073;-0.0554;
578877415514562;0.0280;-0.0956;-0.0170;
578877425617114;0.0258;0.0108;-0.0149;
578877435719666;0.0386;0.0736;-0.0320;
578877445825187;0.0120;0.0417;-0.0138;
578877455927739;-0.0189;0.0278;0.0256;
578877466030291;-0.0338;-0.0125;0.0085;
578877476138781;-0.0583;-0.1702;0.0096;
578877486241333;-0.0519;-0.1670;0.0490;
578877496343937;-0.0146;0.0257;0.0426;
578877506436333;-0.0083;0.0843;0.0170;
578877516538885;0.0216;0.0960;0.0085;
578877526641437;0.0109;0.1312;0.0554;
578877536738624;-0.0093;0.1738;0.0511;
578877546841177;-0.0232;0.1226;0.0117;
578877556943729;-0.0658;0.0033;0.0437;
578877567042583;-0.0764;-0.0573;0.0660;
578877577145187;-0.0636;-0.0860;0.0490;
578877587247739;-0.0668;-0.1180;0.0458;
578877597384093;-0.0679;-0.1137;0.0192;
578877607486645;-0.0935;-0.0605;0.0128;
578877617589249;-0.0551;0.0278;0.0117;
578877627676958;-0.0455;0.0768;0.0032;
578877637779510;-0.0349;0.0779;-0.0234;
578877647882010;-0.0541;0.0790;-0.0075;
578877657977062;-0.0562;0.0992;-0.0224;
578877668079614;-0.0455;0.0960;-0.0469;
578877678182166;-0.0573;0.0609;-0.0288;
578877688271124;-0.0349;0.1290;-0.0117;
578877698373677;-0.0264;0.1269;0.0085;
578877708476229;-0.0285;-0.0477;-0.0021;
578877718596541;-0.0583;-0.0850;-0.0746;
578877728699041;-0.0818;-0.0977;-0.0469;
578877738801593;-0.0636;-0.1467;-0.0064;
578877748915916;-0.0615;-0.1425;-0.0170;
578877759018416;-0.0562;-0.1095;-0.0543;
578877769121020;-0.0455;-0.0200;-0.0160;
578877779224666;-0.0274;0.0332;-0.0096;
578877789327166;-0.0242;0.0651;0.0096;
578877799429718;-0.0381;0.1088;0.0224;
578877809525812;-0.0530;0.0907;0.0501;
578877819628364;-0.0828;0.0598;0.0586;
578877829730916;-0.0999;0.0811;0.0937;
578877839836645;-0.1264;0.0449;0.0873;
578877849939197;-0.1349;-0.0029;0.0820;
578877860041749;-0.1594;-0.0210;0.0831;
578877870140604;-0.2052;-0.0530;0.0682;
578877880243156;-0.2606;0.0161;0.0543;
578877890345708;-0.3053;0.0427;0.0639;
578877900430656;-0.3415;0.0150;0.0415;
578877910533208;-0.3895;0.0065;0.0149;
578877920635760;-0.3895;0.0353;-0.0075;
578877930740968;-0.4385;0.0640;-0.0107;
578877940843520;-0.5109;0.0055;-0.0277;
578877950946072;-0.4715;-0.0019;-0.0458;
578877961051020;-0.5024;0.0630;-0.0362;
578877971153572;-0.4726;0.0417;-0.0543;
578877981256072;-0.4182;0.0278;-0.0692;
578877991365968;-0.3927;0.0406;-0.0873;
578878001468520;-0.3075;0.0577;-0.0831;
578878011571072;-0.2499;0.0726;-0.0618;
578878021679874;-0.2318;0.0193;-0.0778;
578878031782427;-0.1700;0.0055;-0.0682;
578878041884979;-0.1573;0.0491;-0.0565;
578878051977166;-0.1573;0.0395;-0.0511;
578878062079718;-0.1402;0.0364;-0.0533;
578878072182270;-0.1743;0.0534;-0.0554;
578878082285291;-0.1786;0.0182;-0.0767;
578878092387843;-0.1786;0.0385;-0.0788;
578878102490395;-0.1839;0.0598;-0.0937;
578878112594874;-0.1860;0.0055;-0.0831;
578878122697427;-0.1743;0.0097;-0.0543;
578878132799979;-0.1850;0.0374;-0.0714;
578878142892895;-0.1775;0.0119;-0.1023;
578878152995447;-0.1775;0.0225;-0.1097;
578878163097999;-0.1722;0.0300;-0.0969;
578878173209666;-0.1679;0.0406;-0.0703;
578878183312166;-0.1775;0.0491;-0.0905;
578878193414770;-0.1690;-0.0072;-0.0969;
578878203529041;-0.1764;0.0065;-0.1055;
578878213631593;-0.1626;0.0278;-0.1140;
578878223734145;-0.1296;0.0236;-0.1076;
578878233829145;-0.1073;0.0523;-0.1236;
578878243931697;-0.0381;0.0491;-0.1150;
578878254034249;0.0226;0.0300;-0.1289;
578878264134041;0.1174;0.0545;-0.1044;
578878274236593;0.1952;0.0736;-0.0927;
578878284339093;0.3241;0.0321;-0.0778;
578878294441645;0.4700;0.0278;-0.0554;
578878304544249;0.5551;0.0374;-0.0383;
578878314646854;0.6339;0.0182;0.0053;
578878324756645;0.7011;-0.0040;-0.0117;
578878334859249;0.7256;0.0065;0.0160;
578878344961854;0.6734;0.0193;0.0415;
578878355054041;0.6308;-0.0402;0.0778;
578878365156645;0.5519;-0.0189;0.0714;
578878375259302;0.4796;0.0055;0.0469;
578878385351593;0.3997;-0.0168;0.0810;
578878395454197;0.2879;-0.0104;0.0660;
578878405556854;0.2176;0.0012;0.0831;
578878415670499;0.1036;0.0161;0.0565;
578878425773104;0.0471;0.0087;0.0650;
578878435875760;-0.0072;0.0150;0.0586;
578878445984458;-0.0381;0.0300;0.0533;
578878456087062;-0.0871;0.0108;0.0383;
578878466189666;-0.1296;-0.0381;0.0479;
578878476297635;-0.1711;0.0193;0.0288;
578878486400239;-0.1860;0.0342;0.0128;
578878496502895;-0.2041;0.0087;-0.0043;
578878506585187;-0.2201;0.0044;-0.0213;
578878516687791;-0.2126;0.0268;-0.0075;
578878526790447;-0.2212;0.0268;-0.0362;
578878536892999;-0.2116;0.0310;-0.0352;
578878546995604;-0.2265;0.0001;-0.0575;
578878557098208;-0.1647;-0.0157;-0.0394;
578878567212427;-0.1892;0.0268;-0.0405;
578878577315083;-0.1274;-0.0029;-0.0341;
578878587417687;-0.1402;-0.0338;-0.0660;
578878597500708;-0.0605;0.0012;-0.0767;
578878607603312;-0.0626;0.0481;-0.0597;
578878617705968;-0.0317;0.0332;-0.0352;
578878627839927;-0.0029;0.0310;-0.0565;
578878637942583;-0.0008;0.0012;-0.0597;
578878648045187;0.0013;0.0097;-0.0405;
578878658150656;0.0333;-0.0242;-0.0415;
578878668253312;0.0162;-0.0008;-0.0383;
578878678355916;0.0663;0.0204;-0.0266;
578878688442531;0.0130;-0.0115;-0.0202;
578878698545135;0.0375;-0.0605;-0.0309;
578878708647739;0.0120;-0.0115;-0.0298;
578878718764302;0.0557;-0.0040;-0.0032;
578878728866906;0.0141;-0.0328;0.0192;
578878738969510;-0.0083;-0.0115;0.0021;
578878749058104;-0.0040;0.0715;-0.0479;
578878759160708;0.0088;-0.0008;-0.0469;
578878769263364;-0.0317;-0.0115;0.0075;
578878779397791;0.0088;0.0566;-0.0149;
578878789500395;-0.0104;0.0502;-0.0064;
578878799602999;0.0099;0.0172;-0.0128;
578878809668885;0.0035;0.0140;-0.0085;
578878819771489;-0.0328;0.0119;-0.0181;
578878829874093;-0.0360;0.0278;-0.0192;
578878839989979;-0.0562;0.0044;-0.0128;
578878850092583;-0.0711;0.0278;-0.0043;
578878860195187;-0.0264;0.0310;-0.0373;
578878870310499;-0.0786;0.0310;-0.0394;
578878880413104;-0.0892;0.0097;-0.0341;
578878890515708;-0.0786;-0.0093;-0.0234;
578878900579562;-0.0690;-0.0306;-0.0128;
578878910682166;-0.1020;-0.0615;-0.0511;
578878920784770;-0.0360;-0.0594;-0.0703;
578878930910083;-0.0786;-0.0487;-0.0575;
578878941012687;-0.0370;-0.0115;-0.0586;
578878951115291;-0.0242;0.0364;-0.0852;
578878961210812;-0.0051;0.0587;-0.0735;
578878971313416;0.0067;0.0481;-0.0756;
578878981416072;0.0035;0.0257;-0.0575;
578878991522218;-0.0115;-0.0242;-0.0810;
578879001624822;0.0141;-0.0328;-0.0799;
578879011727427;-0.0008;-0.0445;-0.0756;
578879021825812;0.0184;-0.0328;-0.0554;
578879031928416;0.0333;-0.0381;-0.0618;
578879042031020;0.0557;-0.0221;-0.0682;
578879052135135;0.0972;-0.0019;-0.0639;
578879062237739;0.0738;-0.0061;-0.0394;
578879072340395;0.0961;-0.0541;-0.0277;
578879082451229;0.1121;0.0278;-0.0415;
578879092553833;0.1920;-0.0370;-0.0320;
578879102656437;0.2304;-0.1425;-0.0181;
578879112750395;0.2527;-0.0146;0.0320;
578879122852999;0.2037;0.0555;0.0362;
578879132955656;0.1750;0.0268;0.0373;
578879143050812;0.1718;-0.0519;0.0309;
578879153153416;0.1121;-0.0306;0.0330;
578879163256072;0.0695;-0.0051;0.0298;
578879173365552;0.0237;-0.0690;0.0085;
578879183468156;0.0045;-0.0541;0.0202;
578879193570760;-0.0040;-0.0200;0.0096;
578879203679562;-0.0210;-0.0498;0.0085;
578879213782166;0.0067;-0.0807;0.0021;
578879223884770;-0.0115;-0.0786;0.0085;
578879233982687;0.0312;-0.0072;0.0053;
578879244085291;0.0216;-0.0573;0.0021;
578879254187947;0.0248;-0.0466;-0.0064;
578879264285499;0.0493;-0.0381;-0.0170;
578879274388104;0.0301;0.0033;-0.0437;
578879284490708;0.0269;0.0619;-0.0927;
578879294598208;0.0184;-0.0381;-0.0778;
578879304700812;0.0418;0.0268;-0.0650;
578879314803416;0.0738;0.0811;-0.0565;
578879324902062;0.0951;0.0417;-0.0437;
578879335004666;0.1771;0.1045;-0.0724;
578879345107270;0.2176;0.1194;-0.0905;
578879355208364;0.2144;0.0342;-0.0543;
578879365311020;0.2559;-0.0125;-0.0138;
578879375413624;0.2336;-0.0881;-0.0107;
578879385510552;0.2325;-0.0988;-0.0149;
578879395613156;0.2293;-0.1116;-0.0277;
578879405715760;0.2059;-0.1233;-0.0213;
578879415825708;0.2378;-0.0722;0.0075;
578879425928312;0.2538;-0.0200;0.0064;
578879436030916;0.2549;-0.0040;0.0138;
578879446124458;0.2698;0.0204;0.0245;
578879456227062;0.2453;0.0076;0.0181;
578879466329666;0.2389;0.0427;0.0373;
578879476450135;0.2581;0.0832;0.0714;
578879486552739;0.2921;0.0726;0.0778;
578879496655343;0.2634;-0.0296;0.1044;
578879506735812;0.2762;-0.0935;0.1149;
578879516838416;0.2708;-0.1190;0.1065;
578879526941020;0.2250;-0.1297;0.1394;
578879537048156;0.2261;-0.0615;0.1479;
578879547150812;0.2272;-0.0157;0.1202;
578879557253416;0.1973;0.0140;0.1012;
578879567373104;0.1366;0.0619;0.1138;
578879577475708;0.0716;0.0662;0.0927;
578879587578312;0.0248;0.0598;0.1044;
578879597648677;-0.0072;0.0768;0.1160;
578879607751281;0.0077;0.0332;0.1138;
578879617853937;0.0120;-0.0349;0.1138;
578879627976229;0.0045;-0.0455;0.1288;
578879638078833;0.0461;-0.0402;0.1181;
578879648181437;0.0642;-0.0391;0.1012;
578879658280499;0.0727;0.0001;0.1170;
578879668383104;0.0695;0.0736;0.1341;
578879678485708;0.0940;0.1333;0.1202;
578879688591541;0.0940;0.1418;0.1117;
578879698694145;0.0951;0.0992;0.1298;
578879708796749;0.0844;0.0758;0.1469;
578879718899666;0.0866;0.0182;0.1511;
578879729002270;0.0897;0.0449;0.1575;
578879739104874;0.0983;0.0992;0.1628;
578879749202166;0.0908;0.0513;0.1735;
578879759304770;0.0855;0.0449;0.1682;
578879769407374;0.0525;0.0822;0.1575;
578879779535708;0.0045;-0.0051;0.1597;
578879789638312;-0.0136;-0.1052;0.1682;
578879799740916;-0.0125;-0.0008;0.1511;
578879809843416;-0.0317;0.0268;0.1044;
578879819946020;-0.0690;-0.1084;0.0927;
578879830048624;-0.1052;-0.1734;0.1033;
578879840134718;-0.0935;-0.0711;0.1044;
578879850237322;-0.0455;-0.0072;0.0756;
578879860339927;-0.0115;-0.0967;0.0383;
578879870435708;0.0141;-0.1585;0.0383;
578879880538312;0.0695;-0.0008;0.0437;
578879890640916;0.1068;0.1162;0.0341;
578879900767374;0.1334;0.0587;0.0309;
578879910869979;0.1792;0.0395;0.0415;
578879920972583;0.2165;0.0662;0.0788;
578879931060708;0.2240;0.0449;0.1075;
578879941163312;0.2740;0.0087;0.1181;
578879951265916;0.3166;-0.0381;0.1383;
578879961364874;0.3443;-0.0253;0.1788;
578879971467479;0.3401;0.0129;0.2257;
578879981570083;0.3305;-0.0221;0.2417;
578879991668729;0.3166;0.0150;0.2470;
578880001771333;0.2836;0.0875;0.2555;
578880011873937;0.2272;0.0875;0.2981;
578880021986020;0.1174;0.0609;0.3344;
578880032088624;0.0290;0.0790;0.3365;
578880042191229;-0.0360;0.1013;0.3226;
578880052282635;-0.0413;0.0726;0.3237;
578880062385291;-0.0487;0.0619;0.3439;
578880072487895;-0.0828;0.0800;0.3610;
578880082605708;-0.1084;0.0395;0.3354;
578880092708312;-0.1338;-0.0285;0.3067;
578880102810916;-0.1391;-0.0146;0.2907;
578880112887999;-0.1221;0.0342;0.2811;
578880122990604;-0.0828;0.0225;0.2843;
578880133093208;-0.0477;0.0129;0.2662;
578880143229770;-0.0221;0.0609;0.2236;
578880153332374;0.0130;0.1205;0.1756;
578880163434979;0.0535;0.1301;0.1352;
578880173527479;0.0716;0.1269;0.1192;
578880183630083;0.0802;0.1290;0.0980;
578880193732687;0.0919;0.1248;0.0735;
578880203839249;0.0610;0.1109;0.0490;
578880213941854;0.0951;0.0822;0.0352;
578880224044458;0.1089;-0.0040;0.0181;
578880234130291;0.1366;-0.0626;0.0085;
578880244232895;0.2367;-0.0306;0.0032;
578880254335499;0.2953;-0.0029;0.0170;
578880264451749;0.3007;-0.0168;0.0053;
578880274554354;0.3145;-0.0296;-0.0277;
578880284656958;0.3539;-0.0125;-0.0394;
578880294761229;0.3390;0.0694;-0.0309;
578880304863833;0.2655;0.1237;-0.0298;
578880314966489;0.2154;0.0342;-0.0458;
578880325061749;0.2889;-0.0455;-0.0682;
578880335164354;0.3390;0.0214;-0.0628;
578880345266958;0.3337;0.0353;-0.0128;
578880355384927;0.4626;0.0012;0.0224;
578880365487583;0.7138;0.0246;-0.0011;
578880375590239;0.9514;-0.0487;0.0096;
578880385669666;1.0824;-0.1073;0.0884;
578880395772322;1.0760;-0.0690;0.1703;
578880405874979;1.0505;-0.0296;0.2097;
578880415976333;1.0750;-0.0317;0.2204;
578880426078937;1.1366;-0.0818;0.2577;
578880436181541;0.9738;-0.0040;0.3109;
578880446282479;0.7405;0.1333;0.3439;
578880456385083;0.7288;0.0747;0.3780;
578880466487739;0.7011;0.0001;0.3887;
578880476584979;0.5008;0.0577;0.3897;
578880486687583;0.2889;0.0896;0.4153;
578880496790187;0.2250;0.0374;0.4334;
578880506896020;0.1430;0.0342;0.4036;
578880516998624;0.0684;-0.0008;0.3823;
578880527101281;0.0450;-0.0754;0.3812;
578880537238572;-0.0487;-0.0477;0.3684;
578880547341229;-0.2116;0.0044;0.3557;
578880557443833;-0.2861;0.0108;0.3184;
578880567508677;-0.3096;0.0055;0.2822;
578880577611281;-0.3447;0.0108;0.2502;
578880587713937;-0.3596;0.0236;0.2214;
578880597835291;-0.3383;0.0001;0.1980;
578880607937947;-0.3394;-0.0168;0.1810;
578880618040552;-0.4246;0.0470;0.1405;
578880628115187;-0.5098;0.0672;0.1001;
578880638217791;-0.4523;-0.0083;0.0842;
578880648320395;-0.3682;-0.0317;0.0724;
578880658463572;-0.4076;-0.0104;0.0554;
578880668566177;-0.4395;-0.0477;0.0405;
578880678668833;-0.4108;-0.0551;0.0213;
578880688753885;-0.4619;-0.0136;0.0064;
578880698856489;-0.5652;-0.0061;0.0043;
578880708959145;-0.6302;0.0108;-0.0064;
578880719073052;-0.6441;0.0055;-0.0170;
578880729175708;-0.6409;-0.0306;-0.0149;
578880739278312;-0.6803;-0.0072;-0.0224;
578880749361333;-0.7197;-0.0083;-0.0266;
578880759463937;-0.7080;-0.0381;-0.0320;
578880769566593;-0.6867;0.0097;-0.0447;
578880779662843;-0.6920;0.0332;-0.0447;
578880789765499;-0.6856;-0.0136;-0.0341;
578880799868104;-0.6015;0.0033;-0.0415;
578880809980083;-0.4960;0.0214;-0.0490;
578880820082687;-0.4289;-0.0136;-0.0426;
578880830185291;-0.3735;0.0119;-0.0383;
578880840289041;-0.3458;0.0193;-0.0415;
578880850391645;-0.3660;-0.0242;-0.0479;
578880860494249;-0.3586;-0.0168;-0.0575;
578880870598052;-0.3234;0.0087;-0.0586;
578880880700656;-0.3106;0.0140;-0.0522;
578880890803260;-0.3405;0.0012;-0.0458;
578880900920187;-0.4129;-0.0232;-0.0469;
578880911022791;-0.4726;-0.0104;-0.0586;
578880921125395;-0.4907;0.0119;-0.0628;
578880931206229;-0.5216;-0.0136;-0.0618;
578880941308833;-0.5482;-0.0019;-0.0533;
578880951411437;-0.5280;0.0513;-0.0469;
578880961518104;-0.4907;0.0470;-0.0458;
578880971620708;-0.4449;0.0332;-0.0501;
578880981723312;-0.4087;0.0321;-0.0415;
578880991827999;-0.3884;-0.0040;-0.0362;
578881001930604;-0.3245;-0.0104;-0.0383;
578881012033208;-0.1967;0.0129;-0.0330;
578881022135812;-0.0615;0.0044;-0.0245;
578881032238416;0.0248;-0.0019;-0.0149;
578881042341020;0.0365;0.0001;-0.0192;
578881052461124;0.0589;-0.0008;-0.0266;
578881062563729;0.0770;0.0087;-0.0298;
578881072666333;0.0450;-0.0093;-0.0309;
578881082749979;-0.0115;-0.0306;-0.0373;
578881092852583;-0.0200;0.0001;-0.0405;
578881102955239;-0.0168;0.0300;-0.0469;
578881113071437;-0.0136;0.0342;-0.0479;
578881123174041;-0.0115;0.0417;-0.0479;
578881133276645;-0.0189;0.0214;-0.0469;
578881143385083;-0.0146;-0.0125;-0.0490;
578881153487687;-0.0104;0.0044;-0.0522;
578881163590343;-0.0093;0.0278;-0.0533;
578881173678208;-0.0008;0.0193;-0.0565;
578881183780812;0.0035;0.0140;-0.0575;
578881193883416;0.0024;0.0097;-0.0618;
578881203979354;0.0067;0.0055;-0.0703;
578881214081958;0.0205;0.0119;-0.0767;
578881224184562;0.0514;0.0129;-0.0799;
578881234292166;0.0972;0.0278;-0.0788;
578881244394770;0.1419;0.0459;-0.0767;
578881254497374;0.1590;0.0353;-0.0788;
578881264591229;0.1441;0.0214;-0.0842;
578881274693833;0.1079;0.0129;-0.0895;
578881284796437;0.0546;-0.0061;-0.0969;
578881294901802;0.0258;0.0001;-0.1012;
578881305004354;0.0248;0.0278;-0.1033;
578881315106958;0.0173;0.0470;-0.1108;
578881325213052;0.0056;0.0577;-0.1182;
578881335315604;-0.0093;0.0300;-0.1246;
578881345418208;-0.0636;-0.0061;-0.1332;
578881355505656;-0.1434;-0.0008;-0.1438;
578881365608260;-0.2308;0.0108;-0.1577;
578881375710864;-0.3202;0.0033;-0.1800;
578881385899979;-0.3841;0.0076;-0.1971;
578881396002583;-0.4129;0.0278;-0.2077;
578881406105135;-0.4300;0.0364;-0.2130;
578881416136749;-0.4555;0.0385;-0.2194;
578881426239302;-0.4875;0.0289;-0.2344;
578881436341906;-0.5216;0.0204;-0.2525;
578881446437166;-0.5365;0.0193;-0.2620;
578881456539718;-0.5365;0.0236;-0.2599;
578881466642322;-0.4992;0.0246;-0.2557;
578881476763729;-0.4012;0.0364;-0.2546;
578881486866281;-0.2702;0.0449;-0.2503;
578881496968885;-0.1487;0.0364;-0.2429;
578881507043677;-0.0541;0.0214;-0.2312;
578881517146333;0.0099;-0.0019;-0.2226;
578881527248885;0.0471;-0.0200;-0.2184;
578881537355187;0.0354;-0.0125;-0.2194;
578881547457739;0.0322;0.0076;-0.2184;
578881557560343;0.0269;0.0278;-0.2141;
578881567665968;0.0226;0.0427;-0.2130;
578881577768520;0.0205;0.0459;-0.2152;
578881587871124;0.0205;0.0374;-0.2152;
578881597964041;0.0162;0.0193;-0.2077;
578881608066593;-0.0061;0.0023;-0.2003;
578881618169197;-0.0189;0.0001;-0.1949;
578881628273624;-0.0093;0.0076;-0.1885;
578881638376177;-0.0008;0.0161;-0.1790;
578881648478781;-0.0019;0.0268;-0.1683;
578881658608208;-0.0189;0.0278;-0.1587;
578881668710760;-0.0562;0.0150;-0.1513;
578881678813364;-0.0881;0.0055;-0.1406;
578881688908520;-0.1009;0.0012;-0.1268;
578881699011072;-0.0913;-0.0019;-0.1118;
578881709113677;-0.0509;0.0012;-0.0948;
578881719261437;0.0099;0.0076;-0.0756;
578881729363989;0.0130;0.0065;-0.0607;
578881739466593;-0.0008;0.0033;-0.0479;
578881749539822;-0.0051;0.0001;-0.0341;
578881759642427;-0.0083;-0.0040;-0.0224;
578881769745031;-0.0072;-0.0040;-0.0117;
578881779828208;-0.0083;-0.0008;-0.0032;
578881789930760;-0.0093;0.0001;0.0053;
578881800033364;-0.0115;-0.0029;0.0096;
578881810143833;-0.0125;-0.0051;0.0160;
578881820246385;-0.0115;-0.0083;0.0213;
578881830348989;-0.0168;-0.0083;0.0256;
578881840447895;-0.0146;-0.0136;0.0234;
578881850550447;-0.0178;-0.0061;0.0288;
578881860653052;-0.0168;0.0023;0.0352;
578881870763624;-0.0210;0.0033;0.0394;
578881880866177;-0.0210;0.0001;0.0405;
578881890968781;-0.0189;0.0001;0.0458;
578881901064770;-0.0178;-0.0083;0.0458;
578881911167374;-0.0168;-0.0136;0.0479;
578881921269979;-0.0157;-0.0115;0.0458;
578881931356749;-0.0104;-0.0104;0.0405;
578881941459302;-0.0093;-0.0072;0.0352;
578881951561906;-0.0093;-0.0040;0.0288;
578881961676124;-0.0093;0.0001;0.0213;
578881971778677;-0.0083;-0.0008;0.0138;
578881981881281;-0.0061;-0.0008;0.0075;
578881991976958;-0.0040;-0.0008;0.0021;
578882002079510;-0.0019;0.0001;-0.0021;
578882012182114;-0.0029;-0.0008;-0.0021;
578882022287635;-0.0008;-0.0008;-0.0064;
578882032390239;0.0003;-0.0008;-0.0085;
578882042492791;0.0024;0.0001;-0.0096;
578882052578833;0.0024;-0.0019;-0.0096;
578882062681437;0.0024;-0.0019;-0.0107;
578882072783989;0.0024;0.0001;-0.0096;
578882082893833;0.0035;0.0001;-0.0085;
578882092996385;0.0003;0.0001;-0.0085;
578882103098989;-0.0008;0.0012;-0.0053;
578882113207583;-0.0008;0.0023;-0.0032;
578882123310187;-0.0019;0.0023;-0.0000;
578882133412739;-0.0029;0.0023;0.0032;
578882143508833;-0.0040;-0.0008;0.0064;
578882153611437;-0.0040;-0.0008;0.0096;
578882163714041;-0.0040;-0.0019;0.0117;
578882173829145;-0.0019;0.0001;0.0149;
578882183931697;-0.0061;0.0012;0.0181;
578882194034302;-0.0008;-0.0019;0.0117;
578882204133312;-0.0061;-0.0029;0.0117;
578882214235916;-0.0061;-0.0019;0.0128;
578882224338468;-0.0019;-0.0019;0.0149;
578882234438937;-0.0029;-0.0008;0.0117;
578882244541489;0.0003;0.0012;0.0149;
578882254644093;-0.0019;0.0012;0.0128;
578882264755083;0.0003;-0.0008;0.0160;
578882274857635;-0.0040;-0.0008;0.0138;
578882284960239;0.0003;-0.0029;0.0107;
578882295055499;0.0013;-0.0008;0.0075;
578882305158052;0.0013;-0.0029;0.0085;
578882315260656;0.0003;-0.0019;0.0085;
578882325361385;0.0024;0.0012;0.0032;
578882335463989;0.0056;0.0012;0.0032;
578882345566541;0.0067;0.0012;0.0053;
578882355647687;0.0067;0.0001;0.0075;
578882365750291;0.0109;0.0001;0.0107;
578882375852895;0.0141;-0.0029;0.0128;
578882385973937;0.0120;-0.0051;0.0138;
578882396076541;0.0120;-0.0040;0.0149;
578882406179093;0.0099;-0.0029;0.0160;
578882416274666;0.0088;-0.0019;0.0192;
578882426377270;0.0088;-0.0008;0.0202;
578882436479822;0.0077;-0.0008;0.0224;
578882446587479;0.0035;-0.0040;0.0256;
578882456690083;0.0013;-0.0029;0.0277;
578882466792635;0.0035;-0.0029;0.0298;
578882476919510;0.0067;-0.0051;0.0320;
578882487022114;0.0120;-0.0051;0.0341;
578882497124718;0.0216;-0.0040;0.0352;
578882507223520;0.0312;-0.0029;0.0373;
578882517326124;0.0354;-0.0040;0.0373;
578882527428677;0.0354;-0.0040;0.0373;
578882537494770;0.0344;-0.0029;0.0362;
578882547597374;0.0344;-0.0040;0.0352;
578882557699927;0.0312;-0.0051;0.0362;
578882567823885;0.0237;-0.0040;0.0352;
578882577926489;0.0152;-0.0040;0.0309;
578882588029041;0.0056;-0.0019;0.0277;
578882598131802;-0.0008;-0.0008;0.0234;
578882608234406;-0.0083;-0.0008;0.0213;
578882618336958;-0.0093;-0.0019;0.0213;
578882628453833;-0.0061;-0.0008;0.0202;
578882638556385;-0.0061;-0.0019;0.0213;
578882648658937;-0.0083;-0.0019;0.0224;
578882658738312;-0.0093;-0.0029;0.0256;
578882668840916;-0.0083;-0.0029;0.0298;
578882678943468;-0.0093;-0.0040;0.0352;
578882689073104;-0.0115;-0.0029;0.0405;
578882699175656;-0.0093;-0.0051;0.0447;
578882709278260;-0.0040;-0.0040;0.0533;
578882719364041;0.0024;-0.0051;0.0586;
578882729466645;0.0290;-0.0072;0.0565;
578882739569197;0.0386;-0.0136;0.0501;
578882749669874;0.0429;-0.0115;0.0426;
578882759772427;0.0620;-0.0040;0.0490;
578882769875031;0.0834;0.0001;0.0533;
578882779965083;0.0929;0.0001;0.0522;
578882790067635;0.0897;0.0001;0.0479;
578882800170239;0.0738;-0.0051;0.0426;
578882810282479;0.0471;-0.0093;0.0394;
578882820385031;0.0269;-0.0093;0.0373;
578882830487635;0.0120;-0.0040;0.0320;
578882840595083;-0.0029;-0.0008;0.0298;
578882850697687;-0.0136;0.0012;0.0245;
578882860800239;-0.0136;0.0023;0.0202;
578882870895812;-0.0104;0.0001;0.0181;
578882880998416;-0.0093;-0.0019;0.0149;
578882891100968;-0.0061;-0.0008;0.0128;
578882901203833;-0.0029;-0.0008;0.0128;
578882911306437;-0.0019;-0.0008;0.0128;
